timestamp_ms,altitude_m,apogee_m,pos_x,pos_y,pos_z,vel_x,vel_y,vel_z,quat_r,quat_x,quat_y,quat_z,gps_lat,gps_lon,gps_satellites,gps_fix_type,gps_pos_acc_cm,gps_vel_acc_cm,gps_pdop,gps_itow,data_time_ms,data_altitude_m,baro_pressure_pa,baro_temp_c,imu_accel_x,imu_accel_y,imu_accel_z,imu_gyro_x,imu_gyro_y,imu_gyro_z,highg_accel_x,highg_accel_y,highg_accel_z,mag_x,mag_y,mag_z
1781645860990,2.0946726774250237,,0,0,0,0,0,0,1,0,0,0,0,0,0,NoFix,649520576,0,0,402400,416931,859.8891665638098,91409.52408890535,37.69347249530256,-12688,70272,-960384,-875000,-1890000,-446250,0,0,780000,-3783,3315,-3295
1781645861475,1.6381268232865978,,0,0,0,0,0,0,1,0,0,0,0,0,0,NoFix,649520576,0,0,402700,417431,860.4803290432604,91402.98816660244,37.70229148864746,-6832,62464,-956480,463750,-87500,-1785000,0,780000,0,-3789,3325,-3312
1781645861961,2.014187430536026,,0,0,0,0,0,0,1,0,0,0,0,0,0,NoFix,649520576,0,0,403200,417931,859.7281942603464,91411.30387236377,37.70229148864746,-17568,67344,-972096,-2205000,-2791250,3106250,0,780000,780000,-3780,3351,-3276
1781645862447,2.30977765803857,,0,0,0,0,0,0,1,0,0,0,0,0,0,NoFix,649520576,0,0,403800,418431,860.1042548675958,91407.14601795428,37.70229148864746,-17568,66368,-959408,-3535000,-2345000,-1338750,0,0,0,-3767,3375,-3257
1781645862987,1.477157670925294,,0,0,0,0,0,0,1,0,0,0,0,0,0,NoFix,649520576,0,0,404300,418931,859.94328673712,91408.92571780014,37.71111046336591,-15616,61488,-946720,17500,2161250,-2222500,0,0,780000,-3775,3344,-3331
1781645863474,1.477157670925294,,0,0,0,0,0,0,1,0,0,0,0,0,0,NoFix,649520576,0,0,404800,419431,860.31936193469,91404.76778963019,37.71111046336591,-16592,54656,-960384,-866250,-5040000,1776250,0,780000,0,-3794,3305,-3337
1781645863960,1.1815943023214004,,0,0,0,0,0,0,1,0,0,0,0,0,0,NoFix,649520576,0,0,405300,419931,859.4867417134703,91413.97353481154,37.71551994374022,-26352,56608,-938912,-866250,1251250,2660000,0,780000,0,-3758,3328,-3340
1781645864446,1.3161916696682283,,0,0,0,0,0,0,1,0,0,0,0,0,0,NoFix,649520576,0,0,405800,420431,860.1583979771555,91406.54740586328,37.71992941945791,-30256,67344,-960384,-437500,341250,883750,0,780000,780000,-3757,3341,-3327
1781645864961,2.068330540095644,,0,0,0,0,0,0,1,0,0,0,0,0,0,NoFix,649520576,0,0,406400,420931,860.077917180021,91407.43721143148,37.72433889051899,-20496,58560,-961360,-1767500,2590000,-892500,0,0,780000,-3775,3345,-3358
1781645865447,1.9878497429612025,,0,0,0,0,0,0,1,0,0,0,0,0,0,NoFix,649520576,0,0,406700,421431,860.077917180021,91407.43721143148,37.72433889051899,-32208,77104,-976976,-857500,-2336250,1330000,0,0,0,-3769,3345,-3265
1781645865958,2.659564926079497,,0,0,0,0,0,0,1,0,0,0,0,0,0,NoFix,649520576,0,0,407200,421931,859.9974371706428,91408.32701530056,37.72874835692346,976,73200,-949648,2248750,-4121250,-446250,0,780000,0,-3754,3354,-3345
1781645866444,1.907369733582982,,0,0,0,0,0,0,1,0,0,0,0,0,0,NoFix,649520576,0,0,407700,422431,859.8364795151597,91410.10661794065,37.73756727576256,-11712,78080,-952576,-2178750,-1435000,2213750,0,780000,0,-3764,3319,-3312
1781645866959,2.659564926079497,,0,0,0,0,0,0,1,0,0,0,0,0,0,NoFix,649520576,0,0,408200,422931,859.8364795151597,91410.10661794065,37.73756727576256,-26352,52704,-943792,-6685000,-87500,-446250,0,0,0,-3747,3345,-3293
1781645867445,2.659564926079497,,0,0,0,0,0,0,1,0,0,0,0,0,0,NoFix,649520576,0,0,408800,423431,859.4604012520653,91414.26477656199,37.73756727576256,-25376,68320,-951600,1820000,-1435000,455000,780000,0,780000,-3762,3364,-3274
1781645867931,1.6659344319906495,,0,0,0,0,0,0,1,0,0,0,0,0,0,NoFix,649520576,0,0,409300,423931,860.212571347872,91405.94846237714,37.73756727576256,-28304,60512,-956480,-866250,813750,883750,0,780000,780000,-3799,3316,-3336
1781645868441,1.7464120780998655,,0,0,0,0,0,0,1,0,0,0,0,0,0,NoFix,649520576,0,0,409800,424431,860.4277242904784,91403.56975208099,37.7463861759752,-24400,65392,-958432,918750,-1435000,0,0,0,780000,-3801,3339,-3351
1781645868957,1.2898556580023524,,0,0,0,0,0,0,1,0,0,0,0,0,0,NoFix,649520576,0,0,410300,424932,860.212571347872,91405.94846237714,37.73756727576256,-25376,55632,-942816,910000,-2345000,-892500,0,0,780000,-3792,3319,-3319
1781645869443,1.3703338150054378,,0,0,0,0,0,0,1,0,0,0,0,0,0,NoFix,649520576,0,0,410600,425432,859.4604012520653,91414.26477656199,37.73756727576256,-40016,61488,-946720,-4436250,3062500,0,0,0,780000,-3774,3330,-3308
1781645869929,2.7942521762329307,,0,0,0,0,0,0,1,0,0,0,0,0,0,NoFix,649520576,0,0,411200,425932,860.051617865202,91407.72798140283,37.7463861759752,-20496,67344,-972096,1811250,-87500,883750,0,780000,780000,-3752,3313,-3313
1781645870414,1.9615504281422318,,0,0,0,0,0,0,1,0,0,0,0,0,0,NoFix,649520576,0,0,411700,426432,860.4277242904784,91403.56975208099,37.7463861759752,-33184,58560,-951600,910000,-87500,-1338750,780000,780000,780000,-3785,3320,-3353
1781645870926,1.5854575736289007,,0,0,0,0,0,0,1,0,0,0,0,0,0,NoFix,649520576,0,0,412300,426932,860.803844287648,91399.41152581674,37.7463861759752,-29280,58560,-965264,6300000,4418750,-1338750,0,0,780000,-3766,3327,-3321
1781645871440,2.096234070162268,,0,0,0,0,0,0,1,0,0,0,0,0,0,NoFix,649520576,0,0,412800,427432,860.1863015072221,91406.23890264773,37.759614491369575,-24400,62464,-954528,-866250,-525000,883750,0,780000,780000,-3761,3346,-3256
1781645871927,2.5528285624869795,,0,0,0,0,0,0,1,0,0,0,0,0,0,NoFix,649520576,0,0,413400,427932,860.2667749805715,91405.34918749207,37.7552050575614,-3904,62464,-950624,-5766250,-1890000,1330000,0,780000,780000,-3746,3318,-3281
1781645872413,2.9289631545034354,,0,0,0,0,0,0,1,0,0,0,0,0,0,NoFix,649520576,0,0,413900,428432,859.9711423054832,91408.61773836607,37.75079561909661,-38064,63440,-957456,-3088750,1268750,-910000,0,0,780000,-3752,3340,-3355
1781645872899,1.2635580177128531,,0,0,0,0,0,0,1,0,0,0,0,0,0,NoFix,649520640,0,0,414400,428932,860.2667749805715,91405.34918749207,37.7552050575614,-21472,77104,-962336,1365000,3062500,437500,0,0,780000,-3757,3340,-3262
1781645873438,2.096234070162268,,0,0,0,0,0,0,1,0,0,0,0,0,0,NoFix,649520640,0,0,414700,429432,860.4819508623522,91402.97023620873,37.76402392052114,-30256,47824,-947696,-1758750,-87500,-446250,0,0,0,-3769,3350,-3313
1781645873925,1.7743480540849532,,0,0,0,0,0,0,1,0,0,0,0,0,0,NoFix,649520640,0,0,415200,429932,860.1058288216029,91407.1286161033,37.76402392052114,-21472,64416,-965264,-1758750,-3692500,-3115000,0,780000,780000,-3747,3350,-3243
1781645874411,2.2309414389957283,,0,0,0,0,0,0,1,0,0,0,0,0,0,NoFix,649520640,0,0,415700,430432,860.6971455116264,91400.59112755314,37.77284276485443,-25376,74176,-966240,-1312500,-2327500,-446250,0,0,780000,-3749,3337,-3280
1781645874896,1.6938785193968897,,0,0,0,0,0,0,1,0,0,0,0,0,0,NoFix,649520640,0,0,416200,430932,859.4883054897522,91413.95624444168,37.77725218003616,-9760,65392,-974048,472500,3491250,2660000,0,780000,780000,-3766,3362,-3307
1781645875412,1.8286002584186463,,0,0,0,0,0,0,1,0,0,0,0,0,0,NoFix,649520640,0,0,416800,431432,859.7034772094968,91411.57715787395,37.78607099642977,-29280,69296,-969168,-3543750,1277500,1330000,0,780000,780000,-3739,3331,-3295
1781645875923,1.4524746417046117,,0,0,0,0,0,0,1,0,0,0,0,0,0,NoFix,649520640,0,0,417300,431932,859.7034772094968,91411.57715787395,37.78607099642977,-12688,74176,-956480,17500,-542500,-1785000,0,780000,0,-3752,3343,-3261
1781645876409,1.3720082579291102,,0,0,0,0,0,0,1,0,0,0,0,0,0,NoFix,649520640,0,0,417800,432432,860.294806885319,91405.03926824791,37.79488979419693,-43920,56608,-963312,-1750000,-1881250,437500,0,780000,780000,-3713,3325,-3310
1781645876895,1.8286002584186463,,0,0,0,0,0,0,1,0,0,0,0,0,0,NoFix,649520640,0,0,418400,432932,860.1338769487855,91406.81851261911,37.803708573337644,-45872,68320,-981856,-2187500,-980000,-446250,0,0,780000,-3727,3328,-3312
1781645877410,1.3720082579291102,,0,0,0,0,0,0,1,0,0,0,0,0,0,NoFix,649520640,0,0,418600,433432,859.3816100989394,91415.13596067256,37.803708573337644,-6832,78080,-956480,-857500,-988750,437500,0,780000,0,-3774,3344,-3292
1781645877897,1.2110778535521831,,0,0,0,0,0,0,1,0,0,0,0,0,0,NoFix,649520640,0,0,419100,433932,860.1338769487855,91406.81851261911,37.803708573337644,-18544,67344,-952576,481250,-2791250,2213750,0,780000,0,-3746,3325,-3297
1781645878407,3.091849342149544,,0,0,0,0,0,0,1,0,0,0,0,0,0,NoFix,649520640,0,0,419700,434432,860.4295674586688,91403.5493744067,37.80811795592308,-28304,73200,-949648,2275000,1715000,437500,0,780000,0,-3749,3299,-3305
1781645878893,1.5872050027088562,,0,0,0,0,0,0,1,0,0,0,0,0,0,NoFix,649520640,0,0,420200,434932,859.9729501630893,91408.59775018465,37.812527333851904,-40016,56608,-961360,-2642500,1715000,-892500,0,780000,0,-3755,3360,-3263
1781645879378,2.554744726604895,,0,0,0,0,0,0,1,0,0,0,0,0,0,NoFix,649520640,0,0,420700,435432,859.6772724397687,91411.86689315659,37.80811795592308,-18544,51728,-961360,-1303750,-980000,-1785000,0,0,780000,-3780,3346,-3299
1781645879894,1.9633457250184847,,0,0,0,0,0,0,1,0,0,0,0,0,0,NoFix,649520640,0,0,421200,435932,859.6772724397687,91411.86689315659,37.80811795592308,-13664,57584,-955504,-1750000,-2336250,1347500,0,780000,780000,-3756,3363,-3327
1781645880381,3.3875834126940845,,0,0,0,0,0,0,1,0,0,0,0,0,0,NoFix,649520704,0,0,421700,436432,861.4776508497539,91391.96258352244,37.812527333851904,-25376,59536,-955504,-3097500,-87500,2660000,0,780000,780000,-3770,3349,-3292
1781645880867,1.426278770825661,,0,0,0,0,0,0,1,0,0,0,0,0,0,NoFix,649520704,0,0,422300,436932,860.2686432700169,91405.32853175711,37.816936707124114,-14640,49776,-955504,-2187500,367500,0,0,0,780000,-3768,3337,-3273
1781645881376,1.882882726029493,,0,0,0,0,0,0,1,0,0,0,0,0,0,NoFix,649520704,0,0,422600,437432,859.7315658923558,91411.26659376963,37.825755439698696,-16592,61488,-960384,4488750,-988750,1330000,0,780000,780000,-3756,3340,-3321
1781645881893,1.8024205147419252,,0,0,0,0,0,0,1,0,0,0,0,0,0,NoFix,649520704,0,0,423100,437932,859.8120265282257,91410.37698094329,37.82134607573971,-20496,71248,-949648,-2196250,813750,437500,780000,0,780000,-3775,3329,-3303
1781645882378,1.8024205147419252,,0,0,0,0,0,0,1,0,0,0,0,0,0,NoFix,649520704,0,0,423600,438432,859.3554231268621,91415.42550829683,37.825755439698696,-21472,60512,-950624,-2642500,-980000,3106250,0,0,0,-3760,3384,-3337
1781645882863,0.6740360013811824,,0,0,0,0,0,0,1,0,0,0,0,0,0,NoFix,649520768,0,0,424200,438932,860.5643517617029,91402.05923787397,37.82134607573971,-35136,64416,-963312,-2196250,-1435000,437500,0,0,0,-3780,3354,-3308
1781645883350,3.0657474667783617,,0,0,0,0,0,0,1,0,0,0,0,0,0,NoFix,649520768,0,0,424700,439432,859.4358842735159,91414.53585706485,37.82134607573971,-25376,76128,-951600,481250,-3683750,-1338750,0,780000,780000,-3785,3354,-3352
1781645883891,0.8892264974986119,,0,0,0,0,0,0,1,0,0,0,0,0,0,NoFix,649520768,0,0,425200,439932,858.9792939345584,91419.58442588223,37.825755439698696,-23424,66368,-967216,-1330000,813750,-910000,0,0,780000,-3765,3338,-3306
1781645884376,1.8567369080445815,,0,0,0,0,0,0,1,0,0,0,0,0,0,NoFix,649520768,0,0,425700,440432,860.32297528195,91404.72784081346,37.83457415364683,-10736,62464,-953552,-2196250,-533750,-1802500,0,0,780000,-3776,3347,-3357
1781645884862,1.69582217177242,,0,0,0,0,0,0,1,0,0,0,0,0,0,NoFix,649520768,0,0,426300,440932,859.9468043451044,91408.88682603555,37.83457415364683,-27328,56608,-944768,-3552500,-1881250,1776250,0,780000,0,-3781,3357,-3326
1781645885348,2.6090923583271888,,0,0,0,0,0,0,1,0,0,0,0,0,0,NoFix,649520768,0,0,426600,441433,860.32297528195,91404.72784081346,37.83457415364683,-39040,56608,-953552,-6203750,-2782500,0,0,780000,780000,-3804,3373,-3329
1781645885864,2.824378777925631,,0,0,0,0,0,0,1,0,0,0,0,0,0,NoFix,649520768,0,0,427100,441933,859.8663465831186,91409.77639534962,37.83898350363597,-20496,58560,-960384,35000,-4138750,-892500,0,0,780000,-3783,3347,-3316
1781645886375,1.69582217177242,,0,0,0,0,0,0,1,0,0,0,0,0,0,NoFix,649520768,0,0,427600,442433,859.9468043451044,91408.88682603555,37.83457415364683,-11712,55632,-972096,-1303750,367500,-4007500,0,0,780000,-3772,3353,-3312
1781645886860,2.367724500119948,,0,0,0,0,0,0,1,0,0,0,0,0,0,NoFix,649520768,0,0,428100,442933,859.4901887109722,91413.93542203488,37.83898350363597,-31232,56608,-961360,35000,367500,-446250,0,0,780000,-3769,3331,-3340
1781645887346,1.480579546668423,,0,0,0,0,0,0,1,0,0,0,0,0,0,NoFix,649520768,0,0,428600,443433,860.6187030549701,91401.45835115286,37.83898350363597,-26352,45872,-949648,3158750,2616250,2213750,0,780000,780000,-3764,3320,-3293
1781645887862,2.4481796651740524,,0,0,0,0,0,0,1,0,0,0,0,0,0,NoFix,649520768,0,0,429200,443933,859.9468043451044,91408.88682603555,37.83457415364683,6832,69296,-958432,-3981250,1268750,1776250,0,780000,780000,-3767,3352,-3334
1781645888349,2.152450593682943,,0,0,0,0,0,0,1,0,0,0,0,0,0,NoFix,649520768,0,0,429700,444433,859.4901887109722,91413.93542203488,37.83898350363597,-6832,55632,-968192,-411250,1268750,-26250,0,780000,780000,-3764,3359,-3364
1781645888858,1.69582217177242,,0,0,0,0,0,0,1,0,0,0,0,0,0,NoFix,649520768,0,0,430200,444933,861.0753578865499,91396.40987954248,37.83457415364683,-24400,74176,-945744,-402500,-2791250,-1802500,0,780000,0,-3788,3320,-3329
1781645889345,2.904834219869258,,0,0,0,0,0,0,1,0,0,0,0,0,0,NoFix,649520768,0,0,430500,445433,861.0753578865499,91396.40987954248,37.83457415364683,-29280,89792,-952576,-1303750,-87500,2660000,0,0,780000,-3756,3344,-3343
1781645889831,2.152450593682943,,0,0,0,0,0,0,1,0,0,0,0,0,0,NoFix,649520768,0,0,431000,445933,859.9468043451044,91408.88682603555,37.83457415364683,-14640,69296,-967216,-3526250,367500,-3115000,780000,0,780000,-3798,3318,-3361
1781645890346,1.3196637888602254,,0,0,0,0,0,0,1,0,0,0,0,0,0,NoFix,649520768,0,0,431600,446433,859.5706469837282,91413.04581431558,37.83457415364683,-6832,59536,-954528,-857500,-87500,2213750,0,0,0,-3785,3347,-3359
1781645890832,2.152450593682943,,0,0,0,0,0,0,1,0,0,0,0,0,0,NoFix,649520768,0,0,432100,446933,860.5382471022339,91402.34784195427,37.843392848968506,-14640,65392,-940864,-411250,-533750,-892500,0,780000,0,-3764,3311,-3356
1781645891342,2.6090923583271888,,0,0,0,0,0,0,1,0,0,0,0,0,0,NoFix,649520768,0,0,432600,447433,860.5382471022339,91402.34784195427,37.843392848968506,-7808,71248,-957456,-2196250,-533750,2660000,0,780000,780000,-3767,3343,-3367
1781645891828,2.2329078448901782,,0,0,0,0,0,0,1,0,0,0,0,0,0,NoFix,649520768,0,0,433100,447933,859.40973122592,91414.8250280515,37.843392848968506,-37088,64416,-935008,-5328750,1268750,-26250,0,780000,780000,-3792,3368,-3342
1781645892344,1.3196637888602254,,0,0,0,0,0,0,1,0,0,0,0,0,0,NoFix,649520768,0,0,433600,448433,860.5382471022339,91402.34784195427,37.843392848968506,-16592,64416,-947696,-2213750,-78750,1776250,780000,780000,0,-3790,3356,-3330
1781645892831,1.1587511818596568,,0,0,0,0,0,0,1,0,0,0,0,0,0,NoFix,649520768,0,0,434100,448933,859.6249780233339,91412.4450930759,37.85221152566373,-34160,69296,-993568,-1303750,-2310000,1776250,0,0,780000,-3776,3342,-3296
1781645893316,1.6153659851785278,,0,0,0,0,0,0,1,0,0,0,0,0,0,NoFix,649520768,0,0,434500,449433,859.7858896088322,91410.66596296111,37.843392848968506,-35136,54656,-965264,-420000,2170000,1347500,0,0,780000,-3781,3381,-3368
1781645893825,1.750176152955646,,0,0,0,0,0,0,1,0,0,0,0,0,0,NoFix,649520768,0,0,435000,449933,860.2968839701026,91405.01630414314,37.85662085702643,-21472,55632,-972096,-2633750,-7735000,1776250,0,780000,0,-3778,3343,-3362
1781645894341,1.3740021515511671,,0,0,0,0,0,0,1,0,0,0,0,0,0,NoFix,649520768,0,0,435600,450433,859.8402435900155,91410.06500072728,37.86103018373251,-26352,61488,-969168,927500,3920000,883750,0,780000,780000,-3745,3337,-3349
1781645894828,1.6697236278685068,,0,0,0,0,0,0,1,0,0,0,0,0,0,NoFix,649520768,0,0,436100,450933,860.2164311680754,91405.90578813385,37.86103018373251,-38064,69296,-932080,-1321250,-1435000,-446250,0,0,780000,-3780,3344,-3342
1781645895313,1.1326454071453327,,0,0,0,0,0,0,1,0,0,0,0,0,0,NoFix,649520768,0,0,436700,451433,860.0555279270535,91407.68475100589,37.869848823174834,-12688,66368,-955504,-1741250,-533750,-2668750,-780000,780000,780000,-3765,3364,-3312
1781645895800,1.4283707786873947,,0,0,0,0,0,0,1,0,0,0,0,0,0,NoFix,649520768,0,0,437100,451933,860.3512801761302,91404.41490513856,37.87425813591108,-21472,64416,-933056,43750,1251250,883750,0,0,0,-3760,3298,-3318
1781645896316,2.0198676802781392,,0,0,0,0,0,0,1,0,0,0,0,0,0,NoFix,649520768,0,0,437700,452433,860.3512801761302,91404.41490513856,37.87425813591108,-15616,60512,-950624,3605000,805000,-2222500,0,0,780000,-3790,3330,-3303
1781645896826,2.3960854794813713,,0,0,0,0,0,0,1,0,0,0,0,0,0,NoFix,649520768,0,0,438200,452933,859.6532836087871,91412.13212837417,37.89189534028992,-1952,74176,-955504,-831250,-533750,0,0,780000,0,-3774,3350,-3301
1781645897312,2.235193733358642,,0,0,0,0,0,0,1,0,0,0,0,0,0,NoFix,649520768,0,0,438400,453433,859.1966454443611,91417.1811185614,37.8963046297431,-10736,62464,-955504,-857500,-96250,1776250,0,780000,0,-3772,3339,-3304
1781645897797,2.3156392125932825,,0,0,0,0,0,0,1,0,0,0,0,0,0,NoFix,649520768,0,0,438900,453933,860.3252611704185,91404.70256825963,37.8963046297431,-31232,81008,-959408,498750,822500,2213750,0,780000,780000,-3788,3329,-3319
1781645898313,1.858974912731469,,0,0,0,0,0,0,1,0,0,0,0,0,0,NoFix,649520832,0,0,439500,454433,860.3252611704185,91404.70256825963,37.8963046297431,-19520,74176,-942816,-2642500,813750,437500,0,0,0,-3826,3348,-3364
1781645898800,2.074305137847091,,0,0,0,0,0,0,1,0,0,0,0,0,0,NoFix,649520832,0,0,440000,454933,859.8685971475114,91409.75151222291,37.900713914539665,-23424,66368,-956480,1820000,-87500,2213750,0,0,780000,-3761,3348,-3321
1781645899310,2.45053856000186,,0,0,0,0,0,0,1,0,0,0,0,0,0,NoFix,649520832,0,0,440600,455433,860.5406059970617,91402.32176279915,37.90512319467962,-29280,70272,-958432,4497500,1268750,883750,0,0,0,-3783,3361,-3273
1781645899795,1.9938620215723404,,0,0,0,0,0,0,1,0,0,0,0,0,0,NoFix,649520832,0,0,441100,455933,860.5406059970617,91402.32176279915,37.90512319467962,-7808,46848,-962336,1382500,350000,2213750,0,0,780000,-3810,3383,-3326
1781645900282,1.9938620215723404,,0,0,0,0,0,0,1,0,0,0,0,0,0,NoFix,649520832,0,0,441600,456433,860.3797215735399,91404.10046117296,37.913941740989685,-16592,62464,-961360,1382500,813750,1776250,0,0,780000,-3784,3347,-3325
1781645900797,2.289654136480067,,0,0,0,0,0,0,1,0,0,0,0,0,0,NoFix,649520832,0,0,442200,456933,859.6272662666265,91412.41979275868,37.913941740989685,-24400,62464,-961360,-3543750,-78750,437500,0,780000,0,-3771,3360,-3339
1781645901284,2.209213106187576,,0,0,0,0,0,0,1,0,0,0,0,0,0,NoFix,649520832,0,0,442400,457433,859.4663829509954,91414.19863792545,37.9227602686733,-13664,60512,-955504,-3080000,-3228750,-3115000,0,780000,0,-3766,3334,-3408
1781645901793,2.1287728635300027,,0,0,0,0,0,0,1,0,0,0,0,0,0,NoFix,649520832,0,0,442900,457934,860.2188403005898,91405.87915272855,37.9227602686733,-19520,59536,-984784,-848750,2170000,2660000,0,780000,0,-3763,3360,-3392
1781645902280,1.8874568614095324,,0,0,0,0,0,0,1,0,0,0,0,0,0,NoFix,649520832,0,0,443500,458434,859.3055027859879,91415.97747627182,37.931578777730465,-28304,71248,-953552,481250,-2336250,883750,0,0,780000,-3790,3364,-3346
1781645902795,1.8070197693139107,,0,0,0,0,0,0,1,0,0,0,0,0,0,NoFix,649520832,0,0,444000,458934,859.8970872063737,91409.43651538013,37.94039726816118,-24400,48800,-972096,-2187500,-1881250,1776250,0,0,0,-3783,3304,-3354
1781645903282,2.0483334085197384,,0,0,0,0,0,0,1,0,0,0,0,0,0,NoFix,649520832,0,0,444500,459434,859.5208496988844,91413.59641005915,37.94039726816118,-33184,63440,-946720,1391250,822500,3605000,0,780000,780000,-3774,3320,-3395
1781645903768,1.8070197693139107,,0,0,0,0,0,0,1,0,0,0,0,0,0,NoFix,649520896,0,0,445200,459934,859.3599768563428,91415.37515795679,37.94921573996544,-26352,63440,-956480,936250,-1426250,437500,0,780000,780000,-3793,3333,-3398
1781645904278,2.5595355294294677,,0,0,0,0,0,0,1,0,0,0,0,0,0,NoFix,649520896,0,0,445600,460434,859.8970872063737,91409.43651538013,37.94039726816118,-27328,57584,-957456,2301250,-525000,-1338750,0,0,0,-3739,3363,-3358
1781645904793,1.5657132188471223,,0,0,0,0,0,0,1,0,0,0,0,0,0,NoFix,649520896,0,0,446200,460934,861.1608726382947,91395.46451050312,37.95362496888265,-24400,70272,-960384,1828750,3045000,4436250,780000,780000,0,-3789,3342,-3366
1781645905279,1.8615324086407554,,0,0,0,0,0,0,1,0,0,0,0,0,0,NoFix,649520896,0,0,446500,461434,860.7041468570303,91400.51372423318,37.95803419314325,-22448,56608,-931104,2275000,358750,883750,0,780000,0,-3767,3331,-3312
1781645905764,1.700667909655067,,0,0,0,0,0,0,1,0,0,0,0,0,0,NoFix,649520896,0,0,446900,461934,860.0061427545103,91408.23076420068,37.97567104361951,-12688,58560,-961360,-402500,1268750,437500,0,0,780000,-3757,3346,-3310
1781645906251,1.9160753174504634,,0,0,0,0,0,0,1,0,0,0,0,0,0,NoFix,649520896,0,0,447500,462434,860.0061427545103,91408.23076420068,37.97567104361951,-32208,47824,-959408,-840000,-78750,-446250,0,780000,780000,-3780,3352,-3382
1781645906791,2.2119291857858343,,0,0,0,0,0,0,1,0,0,0,0,0,0,NoFix,649520960,0,0,448000,462934,860.3019966228456,91404.95977903022,37.98008024459705,-27328,67344,-959408,-2178750,-525000,-2240000,0,780000,0,-3808,3358,-3414
1781645907277,2.4273720619190726,,0,0,0,0,0,0,1,0,0,0,0,0,0,NoFix,649520960,0,0,448600,463434,860.2215689388312,91405.84898487074,37.98448944091797,-26352,62464,-960384,1382500,-980000,1330000,780000,780000,0,-3765,3309,-3359
1781645907763,2.0510746053613502,,0,0,0,0,0,0,1,0,0,0,0,0,0,NoFix,649520960,0,0,449100,463934,860.1411420424212,91406.7381890046,37.98889863258228,-37088,65392,-949648,1828750,-2782500,17500,0,780000,0,-3751,3348,-3348
1781645908249,2.803683104433162,,0,0,0,0,0,0,1,0,0,0,0,0,0,NoFix,649520960,0,0,449700,464434,859.6040057195399,91412.67697687299,37.997717001941055,-15616,66368,-956480,-3963750,822500,883750,0,0,0,-3785,3313,-3428
1781645908735,1.8902231753535261,,0,0,0,0,0,0,1,0,0,0,0,0,0,NoFix,649520960,0,0,450200,464934,860.195741831676,91406.1345300067,38.00653535267338,-45872,79056,-955504,-3071250,822500,-1338750,0,0,780000,-3808,3324,-3439
1781645909249,2.1860976300531547,,0,0,0,0,0,0,1,0,0,0,0,0,0,NoFix,649520960,0,0,450400,465434,860.0348977235975,91407.91284269544,38.01535368477926,-36112,54656,-948672,-2642500,-78750,1347500,0,0,780000,-3800,3381,-3373
1781645909761,1.6489519373745907,,0,0,0,0,0,0,1,0,0,0,0,0,0,NoFix,649520960,0,0,451000,465934,860.276165067113,91405.24537110123,38.002126179635525,-30256,75152,-955504,-1277500,-78750,437500,0,0,0,-3777,3338,-3418
1781645910247,2.1860976300531547,,0,0,0,0,0,0,1,0,0,0,0,0,0,NoFix,649520960,0,0,451600,466434,859.9544768509403,91408.8019964785,38.019762843847275,-30256,56608,-939888,-2178750,-2327500,-1338750,0,0,780000,-3767,3328,-3430
1781645910732,1.7839893288208941,,0,0,0,0,0,0,1,0,0,0,0,0,0,NoFix,649520960,0,0,452100,466934,859.7936374684127,91410.58029892102,38.02858114801347,-27328,48800,-977952,936250,-78750,0,0,0,0,-3803,3357,-3352
1781645911247,1.7839893288208941,,0,0,0,0,0,0,1,0,0,0,0,0,0,NoFix,649520960,0,0,452700,467434,859.7936374684127,91410.58029892102,38.02858114801347,-23424,74176,-948672,4987500,376250,2660000,0,0,780000,-3806,3357,-3361
1781645911732,1.7035700313529105,,0,0,0,0,0,0,1,0,0,0,0,0,0,NoFix,649520960,0,0,453100,467934,859.7132189585323,91411.46944758024,38.03299029311165,-30256,58560,-952576,-3955000,1268750,-4007500,780000,0,0,-3785,3363,-3380
1781645912246,1.999467669589194,,0,0,0,0,0,0,1,0,0,0,0,0,0,NoFix,649520960,0,0,453600,468434,860.3854481406933,91404.0371491828,38.03739943355322,-1952,65392,-968192,4515000,1277500,-1356250,0,780000,0,-3829,3312,-3376
1781645912731,1.9190504578119771,,0,0,0,0,0,0,1,0,0,0,0,0,0,NoFix,649520960,0,0,454100,468934,860.4658648419446,91403.1480790304,38.03299029311165,-7808,65392,-949648,-3097500,1268750,1330000,0,780000,0,-3785,3337,-3402
1781645913247,1.462316864475497,,0,0,0,0,0,0,1,0,0,0,0,0,0,NoFix,649520960,0,0,454500,469434,860.2246171009165,91405.8152843629,38.046217700466514,-7808,78080,-965264,-1286250,-78750,437500,0,780000,780000,-3789,3371,-3425
1781645913732,1.301485357821889,,0,0,0,0,0,0,1,0,0,0,0,0,0,NoFix,649520960,0,0,455000,469934,860.2246171009165,91405.8152843629,38.046217700466514,-23424,66368,-958432,-3990000,4873750,1330000,0,780000,780000,-3845,3367,-3405
1781645914218,2.2696553976791165,,0,0,0,0,0,0,1,0,0,0,0,0,0,NoFix,649520960,0,0,455500,470434,860.2246171009165,91405.8152843629,38.046217700466514,-36112,80032,-938912,498750,-980000,1811250,0,780000,780000,-3783,3350,-3390
1781645914728,1.5973894865043121,,0,0,0,0,0,0,1,0,0,0,0,0,0,NoFix,649520960,0,0,456000,470934,860.0637892114216,91407.59341270918,38.05503594875336,-22448,50752,-966240,1391250,4427500,3106250,0,780000,780000,-3758,3360,-3380
1781645915244,1.0602440047338177,,0,0,0,0,0,0,1,0,0,0,0,0,0,NoFix,649520960,0,0,456500,471434,860.6556718561086,91401.04964031882,38.06385417841375,-38064,56608,-967216,-2170000,-971250,-1785000,0,780000,780000,-3808,3335,-3380
1781645915730,1.0602440047338177,,0,0,0,0,0,0,1,0,0,0,0,0,0,NoFix,649521024,0,0,457000,471934,860.8712274074339,91398.6665822403,38.07267238944769,-20496,70272,-941840,4077500,-2327500,-2240000,0,0,780000,-3771,3350,-3385
1781645916216,2.324376279854164,,0,0,0,0,0,0,1,0,0,0,0,0,0,NoFix,649521024,0,0,457600,472434,860.1989006916282,91406.09960553414,38.068263286259025,-31232,66368,-949648,1846250,376250,-1802500,780000,0,780000,-3781,3311,-3373
1781645916702,1.5716658330655946,,0,0,0,0,0,0,1,0,0,0,0,0,0,NoFix,649521024,0,0,458200,472934,859.7421428832484,91411.14964889531,38.07267238944769,-37088,66368,-982832,-2616250,-962500,0,0,780000,0,-3749,3364,-3403
1781645917243,2.163561458138588,,0,0,0,0,0,0,1,0,0,0,0,0,0,NoFix,649521024,0,0,458400,473434,859.581324444564,91412.92775673264,38.08149058185518,-7808,71248,-964288,-3071250,1723750,1330000,0,0,780000,-3759,3314,-3389
1781645917729,2.700751888680543,,0,0,0,0,0,0,1,0,0,0,0,0,0,NoFix,649521024,0,0,458900,473934,859.5009164065682,91413.81680808683,38.085899671074,-12688,78080,-967216,1846250,2616250,1776250,780000,780000,780000,-3775,3306,-3376
1781645918214,1.3304417190727236,,0,0,0,0,0,0,1,0,0,0,0,0,0,NoFix,649521024,0,0,459400,474435,859.7968591161167,91410.54467886273,38.090308755636215,-10736,68320,-957456,1881250,-70000,-446250,0,0,780000,-3763,3337,-3397
1781645918700,1.9223451321738594,,0,0,0,0,0,0,1,0,0,0,0,0,0,NoFix,649521024,0,0,460000,474935,860.0124125692337,91408.1614436209,38.0991269107908,-19520,52704,-973072,-1715000,-3675000,-892500,0,780000,780000,-3783,3323,-3390
1781645919185,2.6751150462977193,,0,0,0,0,0,0,1,0,0,0,0,0,0,NoFix,649521024,0,0,460500,475435,860.7651824833575,91399.83894758571,38.0991269107908,-19520,65392,-961360,-2625000,-87500,883750,0,0,0,-3778,3354,-3421
1781645919702,2.5947122002894503,,0,0,0,0,0,0,1,0,0,0,0,0,0,NoFix,649521024,0,0,461100,475935,859.0988880300097,91418.26203920704,38.107945047318935,-10736,63440,-938912,-1277500,-1426250,437500,0,0,0,-3794,3328,-3443
1781645920212,1.143966550609548,,0,0,0,0,0,0,1,0,0,0,0,0,0,NoFix,649521024,0,0,461600,476435,860.1475830236116,91406.66697690892,38.11235410859808,-19520,60512,-939888,1400000,-4103750,-1338750,0,780000,0,-3748,3309,-3359
1781645920698,1.7359163363562402,,0,0,0,0,0,0,1,0,0,0,0,0,0,NoFix,649521024,0,0,462100,476935,860.3631761286031,91404.2833851065,38.12117221718654,-23424,59536,-950624,507500,376250,2660000,0,0,0,-3774,3297,-3362
1781645921183,1.8163149676047396,,0,0,0,0,0,0,1,0,0,0,0,0,0,NoFix,649521024,0,0,462400,477435,859.5300011809946,91413.49522427889,38.12558126449585,-17568,64416,-959408,-1277500,-2773750,-2222500,0,0,0,-3767,3336,-3432
1781645921699,2.192709783169903,,0,0,0,0,0,0,1,0,0,0,0,0,0,NoFix,649521024,0,0,462900,477935,860.2023790993871,91406.06114814171,38.129990307148546,-23424,69296,-946720,4095000,-70000,1330000,0,0,780000,-3785,3334,-3382
1781645922184,2.4083237584153494,,0,0,0,0,0,0,1,0,0,0,0,0,0,NoFix,649521024,0,0,463500,478435,860.5787880183925,91401.89963593308,38.129990307148546,-37088,74176,-951600,-5293750,1277500,1330000,0,0,780000,-3792,3291,-3373
1781645922696,1.8711220249234657,,0,0,0,0,0,0,1,0,0,0,0,0,0,NoFix,649521024,0,0,464000,478935,860.1219817660636,91406.95002709301,38.13439934514463,-31232,67344,-962336,-385000,-70000,437500,0,780000,780000,-3784,3336,-3380
1781645923182,2.0319143290038255,,0,0,0,0,0,0,1,0,0,0,0,0,0,NoFix,649521024,0,0,464600,479435,859.1280133481565,91417.93999444283,38.1476264311932,-17568,42944,-947696,-2616250,-525000,1330000,0,0,780000,-3781,3325,-3383
1781645923698,2.543562569537926,,0,0,0,0,0,0,1,0,0,0,0,0,0,NoFix,649521024,0,0,465100,479935,860.5532368441242,91402.18212046569,38.152035450562835,-14640,59536,-949648,5416250,3981250,1330000,0,0,780000,-3771,3329,-3345
1781645924184,2.006351456544394,,0,0,0,0,0,0,1,0,0,0,0,0,0,NoFix,649521024,0,0,465700,480435,860.5532368441242,91402.18212046569,38.152035450562835,-16592,56608,-963312,3228750,-1872500,1776250,0,0,0,-3781,3342,-3361
1781645924669,1.9259593587038353,,0,0,0,0,0,0,1,0,0,0,0,0,0,NoFix,649521024,0,0,466200,480935,860.7688925629603,91399.79793109595,38.16085347533226,-18544,61488,-948672,-376250,-2301250,-1785000,0,780000,0,-3795,3313,-3405
1781645925179,1.3887640131819126,,0,0,0,0,0,0,1,0,0,0,0,0,0,NoFix,649521024,0,0,466400,481435,860.3120620817164,91404.8484961395,38.16526248073205,-26352,67344,-959408,-1277500,-971250,-2222500,0,0,0,-3777,3337,-3402
1781645925695,1.7651775255610573,,0,0,0,0,0,0,1,0,0,0,0,0,0,NoFix,649521024,0,0,466900,481935,860.2316720692512,91405.73728460718,38.169671481475234,-20496,57584,-962336,516250,-70000,0,0,0,0,-3760,3348,-3382
1781645926182,1.9004393198006255,,0,0,0,0,0,0,1,0,0,0,0,0,0,NoFix,649521024,0,0,467400,482435,859.3180517464652,91415.83872247222,38.178489468991756,-35136,57584,-956480,-7953750,-1417500,3106250,780000,780000,780000,-3781,3310,-3362
1781645926667,2.357268692480602,,0,0,0,0,0,0,1,0,0,0,0,0,0,NoFix,649521024,0,0,468000,482935,859.7493485319561,91411.06997945461,38.19612538814545,-6832,59536,-966240,61250,-1872500,455000,780000,0,780000,-3763,3304,-3365
1781645927153,2.572951540662416,,0,0,0,0,0,0,1,0,0,0,0,0,0,NoFix,649521024,0,0,468600,483435,859.7493485319561,91411.06997945461,38.19612538814545,-25376,72224,-957456,1863750,-516250,2660000,0,780000,0,-3818,3320,-3428
1781645927693,1.8200524573361463,,0,0,0,0,0,0,1,0,0,0,0,0,0,NoFix,649521024,0,0,469100,483935,859.7493485319561,91411.06997945461,38.19612538814545,-19520,48800,-947696,953750,376250,437500,0,780000,780000,-3827,3331,-3383
1781645928179,2.035724858924482,,0,0,0,0,0,0,1,0,0,0,0,0,0,NoFix,649521088,0,0,469600,484435,859.4533041611436,91414.34324794996,38.19171641534194,-28304,52704,-970144,-2607500,1277500,-2240000,0,780000,780000,-3767,3364,-3371
1781645928665,2.331798740172758,,0,0,0,0,0,0,1,0,0,0,0,0,0,NoFix,649521088,0,0,470100,484935,860.1257922959843,91406.90789743028,38.19612538814545,-18544,53680,-955504,2730000,-70000,2257500,780000,0,780000,-3813,3319,-3342
1781645929151,1.8749576670767283,,0,0,0,0,0,0,1,0,0,0,0,0,0,NoFix,649521088,0,0,470300,485435,859.5081973945086,91413.73630375517,38.20935227861628,-25376,54656,-952576,1872500,-516250,0,0,780000,0,-3741,3335,-3358
1781645929637,1.5788965949193425,,0,0,0,0,0,0,1,0,0,0,0,0,0,NoFix,649521088,0,0,470800,485935,859.5885803194967,91412.84753070156,38.204943319782615,-19520,73200,-972096,3185000,-507500,-892500,0,0,780000,-3816,3330,-3342
1781645930177,1.3377478199552115,,0,0,0,0,0,0,1,0,0,0,0,0,0,NoFix,649521152,0,0,471400,486435,860.1807204640636,91406.30060695091,38.21376123279333,-19520,60512,-936960,962500,831250,0,0,780000,0,-3785,3354,-3386
1781645930663,2.467126026566916,,0,0,0,0,0,0,1,0,0,0,0,0,0,NoFix,649521152,0,0,471900,486935,859.7238802225116,91411.35157072634,38.21817018231377,-29280,65392,-959408,-3972500,2178750,-1338750,0,780000,0,-3768,3325,-3341
1781645931149,3.1397340249204717,,0,0,0,0,0,0,1,0,0,0,0,0,0,NoFix,649521152,0,0,472400,487435,859.7238802225116,91411.35157072634,38.21817018231377,-25376,67344,-959408,2747500,831250,1330000,0,0,780000,-3757,3321,-3319
1781645931635,2.090653027003782,,0,0,0,0,0,0,1,0,0,0,0,0,0,NoFix,649521152,0,0,472900,487935,860.019960592668,91408.07799091461,38.222579127177596,-28304,67344,-952576,-2607500,385000,3552500,0,0,780000,-3785,3300,-3327
1781645932151,1.9298931556081698,,0,0,0,0,0,0,1,0,0,0,0,0,0,NoFix,649521152,0,0,473400,488435,860.100340134627,91407.18929978952,38.21817018231377,-23424,48800,-954528,1426250,-516250,0,0,0,0,-3756,3297,-3321
1781645932661,1.9298931556081698,,0,0,0,0,0,0,1,0,0,0,0,0,0,NoFix,649521152,0,0,473900,488935,860.6925444979478,91400.64199405315,38.22698806738481,-40016,57584,-949648,-822500,-3220000,1347500,0,780000,780000,-3793,3355,-3383
1781645933147,1.0966061324264729,,0,0,0,0,0,0,1,0,0,0,0,0,0,NoFix,649521152,0,0,474300,489435,860.7729222318575,91399.75338142905,38.222579127177596,-12688,63440,-961360,-4401250,385000,-2668750,0,0,0,-3757,3341,-3353
1781645933633,1.0966061324264729,,0,0,0,0,0,0,1,0,0,0,0,0,0,NoFix,649521152,0,0,474800,489935,860.019960592668,91408.07799091461,38.222579127177596,-14640,71248,-969168,-1715000,2170000,1776250,780000,0,780000,-3749,3321,-3314
1781645934148,1.6083828625189653,,0,0,0,0,0,0,1,0,0,0,0,0,0,NoFix,649521152,0,0,475300,490436,859.8592038711759,91409.85536802362,38.23139700293541,-19520,75152,-967216,2738750,831250,1776250,0,0,0,-3766,3336,-3349
1781645934635,1.8241095225366735,,0,0,0,0,0,0,1,0,0,0,0,0,0,NoFix,649521152,0,0,475800,490936,859.8592038711759,91409.85536802362,38.23139700293541,-16592,72224,-965264,-3500000,-971250,-892500,0,0,0,-3772,3320,-3319
1781645935146,1.984858923751176,,0,0,0,0,0,0,1,0,0,0,0,0,0,NoFix,649521152,0,0,476300,491436,860.074926360811,91407.47027843073,38.24021486006677,-2928,68320,-955504,-3937500,-971250,437500,0,0,780000,-3769,3323,-3300
1781645935631,1.6633632711703967,,0,0,0,0,0,0,1,0,0,0,0,0,0,NoFix,649521152,0,0,476900,491936,860.2906676402682,91405.08503146695,38.24903269857168,-11712,45872,-957456,5871250,1732500,4882500,0,0,0,-3753,3334,-3313
1781645936147,1.2868851689764824,,0,0,0,0,0,0,1,0,0,0,0,0,0,NoFix,649521152,0,0,477400,492436,859.296580151326,91416.07613390684,38.26225942140445,-23424,53680,-972096,-822500,3080000,-446250,0,0,780000,-3762,3335,-3295
1781645936634,2.2006002032084098,,0,0,0,0,0,0,1,0,0,0,0,0,0,NoFix,649521152,0,0,478000,492936,858.8397429593062,91421.12750115068,38.26666831970215,-30256,73200,-964288,1863750,4427500,-1338750,0,780000,0,-3788,3311,-3346
1781645937119,2.7125087622790716,,0,0,0,0,0,0,1,0,0,0,0,0,0,NoFix,649521152,0,0,478300,493436,859.2162084840822,91416.96480788833,38.26666831970215,-11712,67344,-958432,971250,3535000,-1802500,0,780000,780000,-3768,3345,-3348
1781645937605,2.416360273575947,,0,0,0,0,0,0,1,0,0,0,0,0,0,NoFix,649521152,0,0,478800,493936,860.4260567866152,91403.5881876511,38.26225942140445,-30256,54656,-948672,-2581250,385000,4051250,0,0,0,-3793,3339,-3342
1781645938145,1.879112891259524,,0,0,0,0,0,0,1,0,0,0,0,0,0,NoFix,649521216,0,0,479300,494436,860.6418377341043,91401.20258412455,38.27107721334323,-32208,62464,-977952,516250,3535000,-446250,0,0,0,-3788,3342,-3353
1781645938631,2.2556192129785586,,0,0,0,0,0,0,1,0,0,0,0,0,0,NoFix,649521216,0,0,479800,494936,859.2162084840822,91416.96480788833,38.26666831970215,-29280,40992,-963312,-813750,-516250,-2222500,0,0,780000,-3786,3320,-3285
1781645939117,1.5829913266831,,0,0,0,0,0,0,1,0,0,0,0,0,0,NoFix,649521216,0,0,480400,495436,860.0495509751289,91407.75083334424,38.26225942140445,-39040,70272,-952576,-367500,385000,437500,0,780000,0,-3817,3353,-3364
1781645939603,1.6633632711703967,,0,0,0,0,0,0,1,0,0,0,0,0,0,NoFix,649521216,0,0,480900,495936,859.2162084840822,91416.96480788833,38.26666831970215,-22448,68320,-949648,2318750,385000,1793750,0,0,780000,-3784,3338,-3392
1781645940089,1.9594835380690938,,0,0,0,0,0,0,1,0,0,0,0,0,0,NoFix,649521216,0,0,481400,496436,859.296580151326,91416.07613390684,38.26225942140445,-20496,46848,-953552,78750,1286250,437500,0,780000,0,-3790,3348,-3386
1781645940629,1.879112891259524,,0,0,0,0,0,0,1,0,0,0,0,0,0,NoFix,649521216,0,0,482000,496936,859.6730587637429,91411.9134820961,38.26225942140445,-26352,60512,-972096,-2152500,-971250,1776250,0,0,0,-3823,3363,-3334
1781645941114,1.879112891259524,,0,0,0,0,0,0,1,0,0,0,0,0,0,NoFix,649521216,0,0,482300,497436,859.6730587637429,91411.9134820961,38.26225942140445,0,61488,-935008,-367500,1286250,437500,0,780000,0,-3779,3316,-3323
1781645941600,1.879112891259524,,0,0,0,0,0,0,1,0,0,0,0,0,0,NoFix,649521216,0,0,482800,497936,860.2653173009053,91405.365303544,38.27107721334323,-30256,66368,-942816,525000,-70000,0,0,780000,0,-3801,3354,-3320
1781645942087,1.879112891259524,,0,0,0,0,0,0,1,0,0,0,0,0,0,NoFix,649521216,0,0,483300,498436,859.2162084840822,91416.96480788833,38.26666831970215,-13664,70272,-940864,2318750,-1863750,4051250,0,780000,0,-3812,3350,-3387
1781645942602,1.7183739599968249,,0,0,0,0,0,0,1,0,0,0,0,0,0,NoFix,649521216,0,0,483900,498936,859.9691803283193,91408.63943054061,38.26666831970215,-47824,65392,-963312,4987500,2633750,1793750,0,780000,0,-3800,3344,-3402
1781645943114,1.7987430319000168,,0,0,0,0,0,0,1,0,0,0,0,0,0,NoFix,649521216,0,0,484400,499436,859.8888104689598,91409.52802602202,38.27107721334323,-43920,55632,-970144,-3491250,-2318750,-1802500,0,0,0,-3785,3356,-3395
1781645943600,1.422249800080067,,0,0,0,0,0,0,1,0,0,0,0,0,0,NoFix,649521216,0,0,484900,499936,859.8888104689598,91409.52802602202,38.27107721334323,-23424,83936,-940864,78750,-1872500,3106250,0,0,780000,-3816,3337,-3372
1781645944085,2.0948813021592514,,0,0,0,0,0,0,1,0,0,0,0,0,0,NoFix,649521216,0,0,485500,500436,859.1358376043057,91417.85348015459,38.27107721334323,-4880,47824,-945744,-1260000,-945000,-1338750,0,0,0,-3815,3352,-3356
1781645944601,2.0948813021592514,,0,0,0,0,0,0,1,0,0,0,0,0,0,NoFix,649521216,0,0,486000,500936,860.5614696826441,91402.09110110633,38.275486102327704,-14640,62464,-964288,78750,-61250,1776250,0,780000,0,-3799,3354,-3307
1781645945087,2.014513527913209,,0,0,0,0,0,0,1,0,0,0,0,0,0,NoFix,649521216,0,0,486300,501436,859.4319476550279,91414.57938371736,38.275486102327704,-23424,64416,-961360,-6623750,-1863750,2660000,0,0,780000,-3852,3350,-3357
1781645945597,2.014513527913209,,0,0,0,0,0,0,1,0,0,0,0,0,0,NoFix,649521216,0,0,486800,501936,860.0242139781635,91408.0309645204,38.28430386632681,-40992,64416,-975024,2327500,1286250,1776250,0,780000,0,-3811,3381,-3363
1781645946083,0.8046622527106138,,0,0,0,0,0,0,1,0,0,0,0,0,0,NoFix,649521280,0,0,487400,502436,859.7280731126028,91411.30521183922,38.27989498665556,-33184,52704,-951600,971250,-70000,3141250,0,780000,0,-3838,3338,-3332
1781645946598,1.7734149298137254,,0,0,0,0,0,0,1,0,0,0,0,0,0,NoFix,649521280,0,0,487900,502936,860.7772715082835,91399.70529838762,38.28430386632681,-36112,57584,-947696,-7498750,-2773750,-1785000,0,0,780000,-3813,3342,-3340
1781645947084,1.6380056755430132,,0,0,0,0,0,0,1,0,0,0,0,0,0,NoFix,649521280,0,0,488400,503436,858.7339950173944,91422.2968157523,38.29312161169946,-29280,45872,-960384,4541250,1715000,2660000,0,780000,780000,-3827,3375,-3361
1781645947571,1.7734149298137254,,0,0,0,0,0,0,1,0,0,0,0,0,0,NoFix,649521280,0,0,489000,503936,860.3203702528564,91404.75664176095,38.28871274134144,-20496,67344,-966240,-3482500,385000,1347500,0,0,780000,-3782,3383,-3355
1781645948081,1.9892104728942286,,0,0,0,0,0,0,1,0,0,0,0,0,0,NoFix,649521280,0,0,489500,504436,859.9989153705158,91408.31067194944,38.306348194833845,-5856,59536,-965264,-1260000,376250,1776250,0,0,0,-3809,3388,-3332
1781645948568,0.8596792618634481,,0,0,0,0,0,0,1,0,0,0,0,0,0,NoFix,649521280,0,0,490100,504936,860.4558155170242,91403.25918187255,38.30193933844566,-36112,44896,-949648,-1251250,-1417500,1330000,0,780000,780000,-3816,3380,-3355
1781645949083,2.2050248088700073,,0,0,0,0,0,0,1,0,0,0,0,0,0,NoFix,649521280,0,0,490300,505436,860.4558155170242,91403.25918187255,38.30193933844566,-13664,78080,-959408,-813750,393750,1330000,0,0,780000,-3809,3363,-3367
1781645949569,1.82848618144601,,0,0,0,0,0,0,1,0,0,0,0,0,0,NoFix,649521280,0,0,490800,505936,859.9185536185058,91409.19917520662,38.31075704656541,-46848,71248,-973072,-367500,2187500,-4060000,0,0,0,-3803,3332,-3313
1781645950054,1.0754497328696289,,0,0,0,0,0,0,1,0,0,0,0,0,0,NoFix,649521280,0,0,491300,506436,859.9185536185058,91409.19917520662,38.31075704656541,-37088,67344,-973072,-367500,-971250,883750,0,780000,780000,-3782,3328,-3321
1781645950565,2.124664354454694,,0,0,0,0,0,0,1,0,0,0,0,0,0,NoFix,649521280,0,0,491900,506937,860.2147317915145,91405.92457647044,38.31516589364037,-27328,78080,-957456,1872500,-61250,-892500,780000,780000,0,-3764,3368,-3320
1781645951081,0.9950877479849396,,0,0,0,0,0,0,1,0,0,0,0,0,0,NoFix,649521280,0,0,492400,507437,859.7578324767653,91410.97617657212,38.31957473605871,-20496,71248,-973072,-367500,1286250,1776250,0,780000,780000,-3805,3330,-3354
1781645951567,1.5070470476720175,,0,0,0,0,0,0,1,0,0,0,0,0,0,NoFix,649521280,0,0,492900,507937,860.887492232005,91398.48676974402,38.31957473605871,-28304,60512,-949648,-1706250,822500,437500,0,0,0,-3811,3324,-3398
1781645952052,1.2912389944409597,,0,0,0,0,0,0,1,0,0,0,0,0,0,NoFix,649521280,0,0,493500,508437,859.3009465316286,91416.02785479797,38.32398357382044,-23424,55632,-967216,1863750,-971250,-3561250,0,0,0,-3813,3338,-3316
1781645952539,2.0994291856058,,0,0,0,0,0,0,1,0,0,0,0,0,0,NoFix,649521280,0,0,494000,508937,860.2698526298622,91405.31516112406,38.33280123537406,-37088,60512,-957456,-1260000,-3657500,0,0,0,0,-3789,3355,-3415
1781645953079,1.722873893640326,,0,0,0,0,0,0,1,0,0,0,0,0,0,NoFix,649521280,0,0,494300,509437,859.8129413307001,91410.36686647224,38.337210059165955,-13664,57584,-955504,-7043750,-1863750,1776250,0,780000,0,-3806,3323,-3335
1781645953565,2.179785192802342,,0,0,0,0,0,0,1,0,0,0,0,0,0,NoFix,649521280,0,0,494800,509937,860.1091414028809,91407.09199175997,38.34161887830123,-21472,67344,-959408,980000,-2318750,0,0,0,780000,-3789,3306,-3375
1781645954051,1.5621632212245231,,0,0,0,0,0,0,1,0,0,0,0,0,0,NoFix,649521280,0,0,495300,510437,859.5718765032008,91413.03221986964,38.35043650260195,-27328,63440,-945744,1426250,2607500,5328750,0,0,0,-3794,3334,-3402
1781645954536,2.531168511400324,,0,0,0,0,0,0,1,0,0,0,0,0,0,NoFix,649521280,0,0,495900,510937,859.8680804679665,91409.75722483505,38.35484530776739,-17568,69296,-957456,-2590000,385000,437500,0,780000,0,-3769,3340,-3346
1781645955052,2.315289450470118,,0,0,0,0,0,0,1,0,0,0,0,0,0,NoFix,649521280,0,0,496400,511437,859.5718765032008,91413.03221986964,38.35043650260195,-20496,61488,-957456,525000,-1408750,-892500,0,780000,0,-3832,3339,-3328
1781645955564,1.617309677982007,,0,0,0,0,0,0,1,0,0,0,0,0,0,NoFix,649521280,0,0,496900,511937,859.8680804679665,91409.75722483505,38.35484530776739,-24400,62464,-940864,-813750,385000,437500,0,780000,780000,-3775,3317,-3339
1781645956048,2.370467198909978,,0,0,0,0,0,0,1,0,0,0,0,0,0,NoFix,649521280,0,0,497500,512437,859.8680804679665,91409.75722483505,38.35484530776739,-6832,66368,-944768,-3500000,-1417500,883750,0,0,780000,-3784,3338,-3288
1781645956534,1.617309677982007,,0,0,0,0,0,0,1,0,0,0,0,0,0,NoFix,649521344,0,0,498000,512937,859.5466769117284,91413.3108448885,38.37248048186302,-32208,70272,-955504,-1260000,2187500,-446250,0,780000,0,-3803,3334,-3331
1781645957050,1.617309677982007,,0,0,0,0,0,0,1,0,0,0,0,0,0,NoFix,649521344,0,0,498300,513437,859.4111705552655,91414.80911354713,38.35925410827622,-20496,59536,-952576,516250,831250,-446250,0,780000,0,-3807,3328,-3332
1781645957537,1.8331824523222622,,0,0,0,0,0,0,1,0,0,0,0,0,0,NoFix,649521344,0,0,498900,513937,860.0035990872519,91408.25888760987,38.36807169532403,-31232,72224,-942816,-3928750,-4103750,883750,0,0,0,-3762,3299,-3386
1781645958021,2.882636145605943,,0,0,0,0,0,0,1,0,0,0,0,0,0,NoFix,649521344,0,0,499400,514437,860.9727035826658,91397.54473747667,38.3768892637454,-13664,65392,-950624,1417500,-516250,2660000,0,780000,0,-3815,3297,-3348
1781645958533,1.5117935347616367,,0,0,0,0,0,0,1,0,0,0,0,0,0,NoFix,649521344,0,0,499800,514937,859.8429014789043,91410.03561398592,38.3768892637454,-14640,59536,-951600,-7043750,1303750,-4891250,0,0,780000,-3779,3337,-3359
1781645959029,1.6724864187591493,,0,0,0,0,0,0,1,0,0,0,0,0,0,NoFix,649521344,0,0,500400,515437,858.5525243100689,91424.30346786416,38.38570681354031,-30256,53680,-955504,-2143750,1286250,1347500,0,0,0,-3814,3318,-3368
1781645959534,1.43144827384549,,0,0,0,0,0,0,1,0,0,0,0,0,0,NoFix,649521408,0,0,500900,515937,859.9784495957788,91408.53694693411,38.39011558145285,-10736,71248,-948672,1426250,393750,1330000,0,0,0,-3766,3329,-3350
1781645960020,1.1352185168426558,,0,0,0,0,0,0,1,0,0,0,0,0,0,NoFix,649521408,0,0,501400,516437,859.5215157109053,91413.58904611817,38.39452434470877,-19520,53680,-961360,-3482500,-525000,1776250,0,0,0,-3779,3330,-3375
1781645960506,1.647350268287255,,0,0,0,0,0,0,1,0,0,0,0,0,0,NoFix,649521408,0,0,502000,516937,860.1943641326874,91406.14976190112,38.39893310330808,-19520,45872,-955504,-2135000,-962500,-4060000,0,0,0,-3773,3327,-3345
1781645961017,1.5670078795726567,,0,0,0,0,0,0,1,0,0,0,0,0,0,NoFix,649521408,0,0,502300,517437,859.7374177053471,91411.20189297713,38.40334185725078,-39040,53680,-958432,-1251250,1741250,-446250,0,0,0,-3762,3284,-3346
1781645961533,1.9436121509104396,,0,0,0,0,0,0,1,0,0,0,0,0,0,NoFix,649521408,0,0,502800,517937,859.7374177053471,91411.20189297713,38.40334185725078,-28304,57584,-949648,-1697500,-1863750,0,0,780000,0,-3812,3363,-3382
1781645962019,1.647350268287255,,0,0,0,0,0,0,1,0,0,0,0,0,0,NoFix,649521408,0,0,503300,518437,859.4411712373811,91414.47739985451,38.39893310330808,-31232,70272,-958432,1426250,-1863750,437500,0,0,780000,-3802,3314,-3325
1781645962505,1.1904172154324897,,0,0,0,0,0,0,1,0,0,0,0,0,0,NoFix,649521408,0,0,503800,518937,860.0336795879703,91407.92631066297,38.407750606536865,-28304,55632,-960384,-3482500,-1863750,-446250,0,0,780000,-3743,3305,-3344
1781645962989,2.40057139920782,,0,0,0,0,0,0,1,0,0,0,0,0,0,NoFix,649521408,0,0,504400,519437,861.1635740565332,91395.43464634418,38.407750606536865,-28304,67344,-954528,-1251250,3543750,-1785000,0,780000,0,-3770,3344,-3380
1781645963531,1.5670078795726567,,0,0,0,0,0,0,1,0,0,0,0,0,0,NoFix,649521408,0,0,505000,519937,860.0336795879703,91407.92631066297,38.407750606536865,-22448,45872,-948672,-3473750,-1846250,1330000,780000,780000,780000,-3713,3348,-3346
1781645964016,1.647350268287255,,0,0,0,0,0,0,1,0,0,0,0,0,0,NoFix,649521408,0,0,505500,520437,860.4102974676456,91403.76241949796,38.407750606536865,-11712,70272,-948672,87500,840000,883750,0,780000,0,-3770,3346,-3351
1781645964502,2.2398894493278476,,0,0,0,0,0,0,1,0,0,0,0,0,0,NoFix,649521408,0,0,506000,520937,859.9533384966647,91408.81458246542,38.41215935116634,-21472,73200,-950624,-350000,1286250,2660000,0,0,0,-3776,3351,-3346
1781645964988,1.8632710596049264,,0,0,0,0,0,0,1,0,0,0,0,0,0,NoFix,649521408,0,0,506300,521437,859.9533384966647,91408.81458246542,38.41215935116634,-25376,66368,-949648,-3036250,-2738750,-2668750,0,0,0,-3734,3326,-3364
1781645965505,2.5361821646752105,,0,0,0,0,0,0,1,0,0,0,0,0,0,NoFix,649521408,0,0,506800,521937,859.8729981927333,91409.70285254861,38.4165680911392,-12688,74176,-960384,980000,840000,-892500,0,780000,780000,-3714,3354,-3383
1781645966015,1.4063254642705942,,0,0,0,0,0,0,1,0,0,0,0,0,0,NoFix,649521408,0,0,507400,522437,859.7926586761705,91410.59112091245,38.420976826455444,-30256,53680,-972096,-2135000,2642500,437500,0,780000,780000,-3744,3343,-3371
1781645966500,2.295169037256869,,0,0,0,0,0,0,1,0,0,0,0,0,0,NoFix,649521408,0,0,507900,522937,860.3299568863877,91404.65065291221,38.41215935116634,-29280,72224,-967216,-2135000,-2310000,-2222500,0,0,780000,-3743,3302,-3355
1781645966986,1.4063254642705942,,0,0,0,0,0,0,1,0,0,0,0,0,0,NoFix,649521472,0,0,508400,523438,859.4963929013304,91413.86682354892,38.4165680911392,-26352,55632,-960384,-805000,2161250,0,0,0,780000,-3751,3371,-3371
1781645967501,2.455843668184002,,0,0,0,0,0,0,1,0,0,0,0,0,0,NoFix,649521472,0,0,508900,523938,860.3299568863877,91404.65065291221,38.41215935116634,-10736,68320,-946720,-3500000,840000,0,0,780000,0,-3771,3368,-3383
1781645967987,1.4063254642705942,,0,0,0,0,0,0,1,0,0,0,0,0,0,NoFix,649521472,0,0,509500,524438,859.9533384966647,91408.81458246542,38.41215935116634,-15616,67344,-952576,96250,1286250,-892500,0,780000,0,-3730,3341,-3388
1781645968498,1.7025912391106885,,0,0,0,0,0,0,1,0,0,0,0,0,0,NoFix,649521472,0,0,510100,524938,859.4963929013304,91413.86682354892,38.4165680911392,-32208,61488,-963312,1426250,3990000,2660000,0,0,0,-3772,3361,-3351
1781645968984,2.2398894493278476,,0,0,0,0,0,0,1,0,0,0,0,0,0,NoFix,649521472,0,0,510400,525438,860.2496170924894,91405.53888460739,38.4165680911392,-42944,53680,-968192,-2590000,-1863750,-446250,0,0,0,-3726,3343,-3372
1781645969470,2.1595496554296005,,0,0,0,0,0,0,1,0,0,0,0,0,0,NoFix,649521472,0,0,510800,525938,859.5767337152911,91412.97851507762,38.41215935116634,-3904,74176,-968192,-4812500,840000,-446250,0,780000,780000,-3783,3342,-3417
1781645969986,1.4063254642705942,,0,0,0,0,0,0,1,0,0,0,0,0,0,NoFix,649521472,0,0,511400,526438,859.6570753166325,91412.09020488693,38.407750606536865,-44896,73200,-936960,-4366250,840000,1347500,0,0,0,-3784,3350,-3385
1781645970472,1.5670078795726567,,0,0,0,0,0,0,1,0,0,0,0,0,0,NoFix,649521472,0,0,511900,526938,860.4102974676456,91403.76241949796,38.407750606536865,0,41968,-961360,-3928750,-1837500,437500,0,0,0,-3807,3337,-3334
1781645970984,1.782930755673533,,0,0,0,0,0,0,1,0,0,0,0,0,0,NoFix,649521472,0,0,512400,527438,860.3299568863877,91404.65065291221,38.41215935116634,-19520,61488,-940864,-350000,-962500,1330000,0,0,780000,-3803,3342,-3367
1781645971469,1.5670078795726567,,0,0,0,0,0,0,1,0,0,0,0,0,0,NoFix,649521472,0,0,513000,527938,859.2001425411272,91417.142450749,38.41215935116634,-19520,50752,-960384,-5258750,1286250,437500,0,780000,780000,-3764,3342,-3379
1781645971983,0.8941835661424875,,0,0,0,0,0,0,1,0,0,0,0,0,0,NoFix,649521472,0,0,513500,528438,859.6570753166325,91412.09020488693,38.407750606536865,-21472,78080,-941840,-1697500,-516250,4436250,0,0,780000,-3750,3329,-3413
1781645972470,1.1904172154324897,,0,0,0,0,0,0,1,0,0,0,0,0,0,NoFix,649521472,0,0,514000,528938,860.7065888855842,91400.48672641788,38.41215935116634,-28304,65392,-954528,5442500,1715000,1776250,0,780000,780000,-3715,3345,-3335
1781645972955,2.320230030585776,,0,0,0,0,0,0,1,0,0,0,0,0,0,NoFix,649521472,0,0,514300,529438,859.4411712373811,91414.47739985451,38.39893310330808,-30256,57584,-957456,2318750,-3202500,0,0,780000,0,-3774,3352,-3322
1781645973467,2.320230030585776,,0,0,0,0,0,0,1,0,0,0,0,0,0,NoFix,649521472,0,0,514800,529938,859.5767337152911,91412.97851507762,38.41215935116634,-24400,54656,-959408,-1251250,385000,-446250,0,780000,0,-3770,3350,-3402
1781645973982,1.5670078795726567,,0,0,0,0,0,0,1,0,0,0,0,0,0,NoFix,649521472,0,0,515300,530438,859.7374177053471,91411.20189297713,38.40334185725078,-32208,86864,-955504,-350000,-1408750,2660000,0,780000,780000,-3787,3363,-3384
1781645974468,0.9745277623129596,,0,0,0,0,0,0,1,0,0,0,0,0,0,NoFix,649521472,0,0,515800,530938,859.8177608814426,91410.3135793483,38.39893310330808,-36112,75152,-952576,96250,-507500,437500,0,0,780000,-3758,3327,-3338
1781645974954,1.43144827384549,,0,0,0,0,0,0,1,0,0,0,0,0,0,NoFix,649521472,0,0,516500,531438,859.2252859539025,91416.86443745092,38.39011558145285,-11712,65392,-947696,-3928750,-4541250,-1785000,0,780000,0,-3746,3343,-3380
1781645975440,0.9745277623129596,,0,0,0,0,0,0,1,0,0,0,0,0,0,NoFix,649521472,0,0,517000,531938,858.31148393698,91426.9688797291,38.39893310330808,-16592,68320,-970144,-3045000,-1863750,437500,0,0,0,-3768,3335,-3360
1781645975980,1.1352185168426558,,0,0,0,0,0,0,1,0,0,0,0,0,0,NoFix,649521472,0,0,517500,532438,859.9784495957788,91408.53694693411,38.39011558145285,-7808,81008,-958432,1426250,840000,-927500,0,0,780000,-3764,3338,-3419
1781645976466,1.8883821587189686,,0,0,0,0,0,0,1,0,0,0,0,0,0,NoFix,649521472,0,0,518000,532938,860.2747075861051,91405.26148494198,38.39452434470877,-39040,58560,-937936,-796250,-3666250,-892500,0,0,0,-3752,3331,-3408
1781645976952,1.0548727458756275,,0,0,0,0,0,0,1,0,0,0,0,0,0,NoFix,649521472,0,0,518400,533438,859.2252859539025,91416.86443745092,38.39011558145285,-33184,54656,-971120,-1697500,-2318750,883750,0,780000,0,-3770,3343,-3358
1781645977438,1.8080374078579098,,0,0,0,0,0,0,1,0,0,0,0,0,0,NoFix,649521536,0,0,518900,533938,860.2747075861051,91405.26148494198,38.39452434470877,-28304,65392,-960384,96250,-3211250,1330000,0,0,780000,-3737,3318,-3391
1781645977923,1.8883821587189686,,0,0,0,0,0,0,1,0,0,0,0,0,0,NoFix,649521536,0,0,519400,534438,859.9784495957788,91408.53694693411,38.39011558145285,-23424,56608,-958432,-4366250,-3666250,-2222500,0,780000,0,-3751,3325,-3380
1781645978440,1.8080374078579098,,0,0,0,0,0,0,1,0,0,0,0,0,0,NoFix,649521536,0,0,519900,534938,859.4411712373811,91414.47739985451,38.39893310330808,-17568,67344,-974048,-6597500,-4112500,0,0,0,780000,-3770,3328,-3379
1781645978950,0.8941835661424875,,0,0,0,0,0,0,1,0,0,0,0,0,0,NoFix,649521536,0,0,520400,535438,859.6018609718215,91412.70069066297,38.39011558145285,-29280,57584,-957456,-358750,-953750,0,0,780000,0,-3747,3346,-3361
1781645979436,1.1352185168426558,,0,0,0,0,0,0,1,0,0,0,0,0,0,NoFix,649521536,0,0,520800,535938,859.4411712373811,91414.47739985451,38.39893310330808,-26352,61488,-959408,-1688750,3990000,-1785000,0,0,780000,-3778,3346,-3331
1781645979921,1.8883821587189686,,0,0,0,0,0,0,1,0,0,0,0,0,0,NoFix,649521600,0,0,521500,536438,859.7374177053471,91411.20189297713,38.40334185725078,-18544,70272,-957456,-2135000,840000,883750,0,780000,0,-3784,3354,-3370
1781645980438,2.40057139920782,,0,0,0,0,0,0,1,0,0,0,0,0,0,NoFix,649521600,0,0,522000,536938,859.7374177053471,91411.20189297713,38.40334185725078,-27328,69296,-947696,-3465000,-962500,-1785000,780000,780000,0,-3756,3353,-3377
1781645980925,1.727693444382794,,0,0,0,0,0,0,1,0,0,0,0,0,0,NoFix,649521600,0,0,522200,537438,860.3299568863877,91404.65065291221,38.41215935116634,-31232,78080,-955504,542500,1741250,-2668750,0,0,0,-3764,3358,-3372
1781645981435,0.8138401573668261,,0,0,0,0,0,0,1,0,0,0,0,0,0,NoFix,649521600,0,0,522800,537938,858.5273441412971,91424.58190591437,38.407750606536865,-17568,64416,-961360,-2590000,2187500,883750,0,0,780000,-3769,3326,-3346
1781645981920,1.4063254642705942,,0,0,0,0,0,0,1,0,0,0,0,0,0,NoFix,649521600,0,0,523300,538438,860.4102974676456,91403.76241949796,38.407750606536865,-36112,63440,-952576,-3920000,-962500,1776250,0,0,0,-3778,3343,-3388
1781645982436,1.4866662782312687,,0,0,0,0,0,0,1,0,0,0,0,0,0,NoFix,649521600,0,0,523900,538938,859.4963929013304,91413.86682354892,38.4165680911392,-7808,62464,-947696,1443750,-61250,-446250,0,0,0,-3740,3345,-3354
1781645982922,2.1595496554296005,,0,0,0,0,0,0,1,0,0,0,0,0,0,NoFix,649521600,0,0,524400,539438,859.4963929013304,91413.86682354892,38.4165680911392,-28304,71248,-974048,-796250,-1863750,-463750,0,0,780000,-3772,3307,-3392
1781645983408,1.029733780087554,,0,0,0,0,0,0,1,0,0,0,0,0,0,NoFix,649521600,0,0,524900,539939,860.2496170924894,91405.53888460739,38.4165680911392,-39040,38064,-950624,2765000,-962500,-446250,0,0,0,-3752,3345,-3382
1781645983918,1.029733780087554,,0,0,0,0,0,0,1,0,0,0,0,0,0,NoFix,649521600,0,0,525400,540439,861.0028957216007,91397.21095790139,38.4165680911392,-24400,60512,-983808,-3473750,1741250,3106250,0,780000,0,-3775,3346,-3407
1781645984434,1.3259854376879048,,0,0,0,0,0,0,1,0,0,0,0,0,0,NoFix,649521600,0,0,526000,540939,859.3357136355414,91415.6434353329,38.42538555711508,-47824,51728,-955504,-1242500,-2292500,-446250,0,0,0,-3767,3372,-3391
1781645984920,1.9988724297282943,,0,0,0,0,0,0,1,0,0,0,0,0,0,NoFix,649521600,0,0,526300,541439,859.1750375192473,91417.42004023772,38.43420300446451,-8784,43920,-952576,-1688750,-61250,0,0,780000,0,-3745,3350,-3383
1781645985405,0.2514583429134518,,0,0,0,0,0,0,1,0,0,0,0,0,0,NoFix,649521600,0,0,526800,541939,859.6319820051518,91412.3676524814,38.4297942831181,-15616,81008,-968192,-796250,-61250,0,0,780000,0,-3757,3342,-3419
1781645985892,1.0046332051020954,,0,0,0,0,0,0,1,0,0,0,0,0,0,NoFix,649521600,0,0,527300,542439,860.6815484998875,91400.76356038649,38.43420300446451,-26352,60512,-952576,96250,-2310000,-1785000,0,780000,780000,-3766,3348,-3398
1781645986432,2.6718166872427673,,0,0,0,0,0,0,1,0,0,0,0,0,0,NoFix,649521600,0,0,527900,542939,859.9282657905188,91409.09179419397,38.43420300446451,-42944,61488,-961360,-2590000,-4103750,2213750,0,0,0,-3772,3342,-3399
1781645986917,1.0849700821875103,,0,0,0,0,0,0,1,0,0,0,0,0,0,NoFix,649521664,0,0,528400,543439,859.8479299334238,91409.98001729137,38.4386117211543,-36112,52704,-947696,-1242500,-4112500,901250,0,0,0,-3799,3346,-3427
1781645987404,1.8381983534590063,,0,0,0,0,0,0,1,0,0,0,0,0,0,NoFix,649521664,0,0,528900,543939,860.601213662816,91401.65170670912,38.4386117211543,-248880,62464,-967216,-3473750,-52500,437500,0,0,0,-3776,3342,-3399
1781645987890,1.3009054668027602,,0,0,0,0,0,0,1,0,0,0,0,0,0,NoFix,649521664,0,0,529500,544439,860.897542404944,91398.37566222185,38.443020433187485,-39040,73200,-962336,96250,3543750,1776250,0,0,0,-3771,3329,-3356
1781645988375,1.1402366694352395,,0,0,0,0,0,0,1,0,0,0,0,0,0,NoFix,649521664,0,0,530000,544939,860.4405463507071,91403.42799419485,38.447429140564054,-28304,46848,-957456,-3027500,393750,1776250,0,0,780000,-3797,3311,-3355
1781645988916,1.1402366694352395,,0,0,0,0,0,0,1,0,0,0,0,0,0,NoFix,649521664,0,0,530200,545439,860.3602138756619,91404.31613535767,38.45183784328401,-13664,77104,-959408,5005000,-2765000,0,0,780000,0,-3830,3331,-3359
1781645989402,2.807474967884218,,0,0,0,0,0,0,1,0,0,0,0,0,0,NoFix,649521664,0,0,530700,545939,859.4462624582872,91414.42110697491,38.460655234754086,-14640,55632,-951600,-350000,-3666250,883750,0,780000,780000,-3807,3323,-3379
1781645989888,1.7328326305187147,,0,0,0,0,0,0,1,0,0,0,0,0,0,NoFix,649521664,0,0,531300,546439,859.0696384585723,91418.58545879005,38.460655234754086,-248880,70272,-941840,551250,-507500,1793750,0,780000,0,-3757,3346,-3381
1781645990374,1.9488244118059583,,0,0,0,0,0,0,1,0,0,0,0,0,0,NoFix,649521664,0,0,531800,546939,859.5819105606104,91412.92127622133,38.4738812870346,-10736,68320,-969168,-796250,-1863750,437500,0,0,780000,-3783,3327,-3380
1781645990890,1.7328326305187147,,0,0,0,0,0,0,1,0,0,0,0,0,0,NoFix,649521664,0,0,532300,547439,860.4958865163935,91402.81616749987,38.465063923504204,-31232,58560,-955504,-350000,-507500,883750,0,0,0,-3765,3314,-3423
1781645991399,1.1152039843918828,,0,0,0,0,0,0,1,0,0,0,0,0,0,NoFix,649521664,0,0,532900,547939,859.2856009797116,91416.19753080388,38.46947260759771,-27328,60512,-957456,2318750,-3193750,-1338750,0,780000,0,-3752,3315,-3357
1781645991886,1.4918431235505523,,0,0,0,0,0,0,1,0,0,0,0,0,0,NoFix,649521664,0,0,533500,548439,860.0388918488658,91407.86868280508,38.46947260759771,-11712,59536,-960384,-1688750,393750,2213750,0,0,0,-3748,3292,-3429
1781645992372,1.0348752134840424,,0,0,0,0,0,0,1,0,0,0,0,0,0,NoFix,649521728,0,0,534000,548939,859.7979085958034,91410.53307532216,38.48269863193855,-33184,74176,-964288,2773750,-2765000,883750,0,0,0,-3760,3335,-3380
1781645992888,1.9488244118059583,,0,0,0,0,0,0,1,0,0,0,0,0,0,NoFix,649521728,0,0,534200,549439,860.6315829159715,91401.31595689671,38.47828996181488,-47824,57584,-960384,-1688750,1295000,-1785000,0,0,0,-3791,3323,-3371
1781645993373,2.5415154789117196,,0,0,0,0,0,0,1,0,0,0,0,0,0,NoFix,649521728,0,0,534800,549939,859.7979085958034,91410.53307532216,38.48269863193855,-26352,54656,-945744,-1688750,-507500,-446250,0,780000,0,-3768,3321,-3363
1781645993884,0.8742200337093209,,0,0,0,0,0,0,1,0,0,0,0,0,0,NoFix,649521728,0,0,535300,550439,860.6315829159715,91401.31595689671,38.47828996181488,-25376,79056,-946720,1435000,840000,437500,0,780000,780000,-3777,3290,-3337
1781645994370,1.7078411587435767,,0,0,0,0,0,0,1,0,0,0,0,0,0,NoFix,649521728,0,0,535700,550939,859.8782355594911,91409.64494620424,38.47828996181488,-20496,56608,-959408,-2607500,3088750,-2222500,0,0,780000,-3786,3293,-3340
1781645994885,2.4611895351345083,,0,0,0,0,0,0,1,0,0,0,0,0,0,NoFix,649521728,0,0,536300,551439,860.470931815738,91403.09205986718,38.4871072974056,-13664,58560,-953552,-3946250,-962500,-2222500,0,0,780000,-3796,3306,-3388
1781645995372,1.627514982389357,,0,0,0,0,0,0,1,0,0,0,0,0,0,NoFix,649521728,0,0,536800,551939,859.7979085958034,91410.53307532216,38.48269863193855,-15616,63440,-954528,2800000,-52500,883750,0,0,0,-3790,3293,-3364
1781645995858,2.3005400095385085,,0,0,0,0,0,0,1,0,0,0,0,0,0,NoFix,649521728,0,0,537400,552439,859.7175824194492,91411.42120271879,38.4871072974056,-17568,58560,-965264,-3027500,-2310000,-446250,0,780000,0,-3782,3329,-3383
1781645996369,2.084508540426782,,0,0,0,0,0,0,1,0,0,0,0,0,0,NoFix,649521728,0,0,537900,552939,860.0942503110793,91407.25662976342,38.4871072974056,-16592,63440,-959408,-1242500,840000,-446250,0,780000,780000,-3759,3302,-3368
1781645996883,1.9238579949336554,,0,0,0,0,0,0,1,0,0,0,0,0,0,NoFix,649521728,0,0,538200,553439,859.6372570304281,91412.30932839392,38.49151595821604,-26352,74176,-963312,-2117500,-507500,1330000,0,780000,780000,-3791,3336,-3349
1781645997370,2.757559497507941,,0,0,0,0,0,0,1,0,0,0,0,0,0,NoFix,649521728,0,0,538700,553939,859.2606022407783,91416.47394279442,38.49151595821604,-40992,63440,-960384,-3018750,3097500,-892500,780000,0,0,-3780,3313,-3320
1781645997856,2.2202164277165366,,0,0,0,0,0,0,1,0,0,0,0,0,0,NoFix,649521728,0,0,539200,554439,860.0139254319935,91408.1447170527,38.49151595821604,-26352,71248,-957456,-341250,840000,1776250,780000,780000,0,-3773,3325,-3323
1781645998342,1.54718959336833,,0,0,0,0,0,0,1,0,0,0,0,0,0,NoFix,649521728,0,0,539700,554939,860.526336221681,91402.47952477237,38.504741912707686,-24400,79056,-961360,-2126250,-4086250,437500,0,0,0,-3815,3293,-3353
1781645998852,2.2202164277165366,,0,0,0,0,0,0,1,0,0,0,0,0,0,NoFix,649521728,0,0,540300,555439,860.7424073828777,91400.09073622279,38.51355919241905,-15616,64416,-932080,542500,4891250,883750,0,780000,780000,-3798,3309,-3383
1781645999368,2.596912566448623,,0,0,0,0,0,0,1,0,0,0,0,0,0,NoFix,649521728,0,0,540800,555940,860.2299610702674,91405.75620141326,38.500333265867084,-31232,72224,-957456,-2126250,-1855000,-2222500,0,780000,780000,-3788,3352,-3368
1781645999854,2.0595716260202153,,0,0,0,0,0,0,1,0,0,0,0,0,0,NoFix,649521728,0,0,541300,556440,860.5817709193252,91401.8666581063,38.522376453503966,-32208,59536,-951600,-4375000,-52500,1330000,0,0,780000,-3830,3309,-3350
1781646000340,0.9849339154768586,,0,0,0,0,0,0,1,0,0,0,0,0,0,NoFix,649521728,0,0,541900,556940,860.1247405449598,91406.91952571056,38.526785077061504,-31232,68320,-950624,2327500,2178750,0,0,780000,0,-3779,3326,-3349
1781646000826,2.8684299124033714,,0,0,0,0,0,0,1,0,0,0,0,0,0,NoFix,649521728,0,0,542100,557440,859.6677235534988,91411.97247142089,38.53119369596243,-33184,71248,-961360,3228750,-953750,1330000,0,0,0,-3815,3314,-3387
1781646001366,1.9543563344703898,,0,0,0,0,0,0,1,0,0,0,0,0,0,NoFix,649521728,0,0,542600,557940,859.587407057486,91412.86050310357,38.53560231020674,-22448,78080,-955504,-4357500,-6317500,1330000,0,0,0,-3786,3358,-3383
1781646001852,1.7937251495053488,,0,0,0,0,0,0,1,0,0,0,0,0,0,NoFix,649521728,0,0,543200,558440,860.421137604955,91403.64257310092,38.53119369596243,-16592,62464,-962336,-4366250,-5460000,-1338750,0,0,780000,-3804,3282,-3330
1781646002338,1.9543563344703898,,0,0,0,0,0,0,1,0,0,0,0,0,0,NoFix,649521728,0,0,543800,558940,859.9641077853962,91408.69551402943,38.53560231020674,-24400,78080,-969168,105000,822500,-892500,0,0,0,-3777,3295,-3330
1781646002824,1.8740403483363934,,0,0,0,0,0,0,1,0,0,0,0,0,0,NoFix,649521728,0,0,544300,559440,860.2605074397596,91405.41848120542,38.54001091979444,-20496,51728,-958432,-8365000,-2756250,-1356250,0,0,0,-3784,3291,-3373
1781646003339,1.4170239117238452,,0,0,0,0,0,0,1,0,0,0,0,0,0,NoFix,649521728,0,0,544800,559940,859.8034781750331,91410.47149545707,38.54441952472553,-31232,57584,-963312,-7026250,-1408750,3106250,0,780000,0,-3790,3303,-3408
1781646003826,1.1760815094597774,,0,0,0,0,0,0,1,0,0,0,0,0,0,NoFix,649521728,0,0,545400,560440,859.7231645508014,91411.35948358628,38.548828125,-34160,74176,-951600,1443750,-953750,-892500,0,780000,0,-3793,3336,-3402
1781646004336,2.0901261010407097,,0,0,0,0,0,0,1,0,0,0,0,0,0,NoFix,649521792,0,0,545800,560940,859.42677642739,91414.63656129994,38.54441952472553,-32208,57584,-977952,997500,393750,883750,0,0,0,-3807,3319,-3344
1781646004822,1.4170239117238452,,0,0,0,0,0,0,1,0,0,0,0,0,0,NoFix,649521792,0,0,546200,561440,859.7231645508014,91411.35948358628,38.548828125,-26352,55632,-980880,1435000,-61250,883750,0,0,780000,-3782,3299,-3398
1781646005337,3.3006662660961865,,0,0,0,0,0,0,1,0,0,0,0,0,0,NoFix,649521792,0,0,546700,561940,860.933665115033,91397.97631628368,38.54441952472553,-31232,73200,-962336,3228750,-3657500,4436250,0,0,0,-3762,3282,-3391
1781646005822,1.7937251495053488,,0,0,0,0,0,0,1,0,0,0,0,0,0,NoFix,649521792,0,0,547200,562440,860.1801935381005,91406.30643267347,38.54441952472553,-16592,65392,-950624,-3018750,-945000,0,0,0,780000,-3807,3300,-3343
1781646006310,0.8797062130403219,,0,0,0,0,0,0,1,0,0,0,0,0,0,NoFix,649521792,0,0,547700,562940,860.099880423733,91407.19438241856,38.548828125,-23424,68320,-966240,-778750,-3202500,-910000,0,780000,0,-3762,3280,-3362
1781646006819,1.7937251495053488,,0,0,0,0,0,0,1,0,0,0,0,0,0,NoFix,649521856,0,0,548200,563440,860.1801935381005,91406.30643267347,38.54441952472553,-26352,70272,-979904,-1680000,2196250,-2668750,0,0,780000,-3775,3302,-3310
1781646007335,2.763285583362517,,0,0,0,0,0,0,1,0,0,0,0,0,0,NoFix,649521856,0,0,548800,563940,860.0195680966551,91408.08233044049,38.55323672061786,-7808,80032,-961360,997500,393750,-1785000,0,780000,780000,-3788,3303,-3312
1781646007822,1.2563948562404903,,0,0,0,0,0,0,1,0,0,0,0,0,0,NoFix,649521856,0,0,549300,564440,858.8894597934768,91420.57775827411,38.55323672061786,-40016,68320,-946720,-4357500,-52500,1330000,0,780000,780000,-3792,3295,-3350
1781646008307,1.0957689499814478,,0,0,0,0,0,0,1,0,0,0,0,0,0,NoFix,649521856,0,0,549800,564940,860.3962980960189,91403.91719394799,38.55323672061786,-39040,70272,-973072,-3911250,-1863750,437500,0,780000,0,-3791,3286,-3334
1781646008794,3.140042309392129,,0,0,0,0,0,0,1,0,0,0,0,0,0,NoFix,649521856,0,0,550000,565440,859.9392565568696,91408.9702767391,38.55764531157911,-21472,51728,-930128,-1233750,-516250,-3115000,0,0,0,-3774,3326,-3369
1781646009304,2.6026637559659775,,0,0,0,0,0,0,1,0,0,0,0,0,0,NoFix,649521856,0,0,550600,565940,859.9392565568696,91408.9702767391,38.55764531157911,-30256,64416,-965264,-2117500,402500,3106250,0,780000,780000,-3819,3303,-3389
1781646009820,1.4724722271701012,,0,0,0,0,0,0,1,0,0,0,0,0,0,NoFix,649521856,0,0,551100,566440,860.3159870660876,91404.80510186277,38.55764531157911,-30256,76128,-956480,-1688750,-61250,-1338750,-780000,780000,0,-3772,3342,-3389
1781646010306,2.0652999310120776,,0,0,0,0,0,0,1,0,0,0,0,0,0,NoFix,649521856,0,0,551600,566940,860.6927311930258,91400.63993004554,38.55764531157911,-23424,69296,-975024,-332500,3552500,3106250,0,780000,0,-3809,3324,-3365
1781646010792,2.2259196290277714,,0,0,0,0,0,0,1,0,0,0,0,0,0,NoFix,649521856,0,0,552200,567440,860.6124214602413,91401.52779785324,38.56205389788374,-7808,65392,-953552,997500,-52500,2660000,0,0,0,-3843,3331,-3442
1781646011277,2.6026637559659775,,0,0,0,0,0,0,1,0,0,0,0,0,0,NoFix,649521856,0,0,552700,567940,860.5321125147232,91402.41566393765,38.566462479531765,-23424,70272,-952576,-3911250,1732500,-446250,0,0,780000,-3749,3319,-3365
1781646011816,2.4420450776633515,,0,0,0,0,0,0,1,0,0,0,0,0,0,NoFix,649521920,0,0,553200,568440,859.8589458043688,91409.85822131427,38.56205389788374,-27328,77104,-958432,-2117500,-70000,0,0,0,0,-3789,3333,-3336
1781646012303,1.3118504897805678,,0,0,0,0,0,0,1,0,0,0,0,0,0,NoFix,649521920,0,0,553700,568940,859.8589458043688,91409.85822131427,38.56205389788374,-23424,60512,-977952,-1233750,2161250,2660000,0,0,0,-3779,3288,-3347
1781646012790,1.6885684020958251,,0,0,0,0,0,0,1,0,0,0,0,0,0,NoFix,649521920,0,0,554000,569440,860.1553673680719,91406.58091252213,38.566462479531765,-37088,66368,-949648,-3456250,-1400000,-1785000,0,0,0,-3791,3317,-3369
1781646013276,1.904683382117014,,0,0,0,0,0,0,1,0,0,0,0,0,0,NoFix,649521920,0,0,554500,569940,858.8645940221589,91420.85271069723,38.57527962885797,-36112,40992,-937936,4112500,1295000,1793750,0,780000,780000,-3785,3289,-3363
1781646013791,2.0652999310120776,,0,0,0,0,0,0,1,0,0,0,0,0,0,NoFix,649521920,0,0,555200,570440,859.6180182705945,91412.5220446975,38.57527962885797,-34160,74176,-954528,551250,-52500,1776250,0,0,780000,-3801,3335,-3351
1781646014300,2.2011229647506525,,0,0,0,0,0,0,1,0,0,0,0,0,0,NoFix,649521920,0,0,555700,570940,860.5876454102752,91401.80171197992,38.584096759557724,-28304,47824,-950624,-778750,848750,-2240000,0,0,0,-3828,3346,-3408
1781646014788,1.6885684020958251,,0,0,0,0,0,0,1,0,0,0,0,0,0,NoFix,649521920,0,0,556200,571440,859.9947508191768,91408.3567162869,38.57527962885797,-25376,74176,-945744,-341250,-507500,883750,0,0,0,-3811,3329,-3384
1781646015273,1.367336414112856,,0,0,0,0,0,0,1,0,0,0,0,0,0,NoFix,649521920,0,0,556700,571940,860.2108846053776,91405.96711103829,38.584096759557724,-976,72224,-972096,-3893750,-953750,-2668750,0,780000,0,-3784,3313,-3318
1781646015789,0.9906164625355132,,0,0,0,0,0,0,1,0,0,0,0,0,0,NoFix,649521920,0,0,557300,572441,859.8341374193902,91410.13251315588,38.584096759557724,-14640,66368,-954528,1443750,840000,2213750,0,0,0,-3770,3322,-3387
1781646016274,1.367336414112856,,0,0,0,0,0,0,1,0,0,0,0,0,0,NoFix,649521920,0,0,557800,572941,859.296792580886,91416.0737850707,38.592913871631026,-53680,53680,-952576,577500,-3211250,437500,0,0,0,-3804,3307,-3383
1781646016785,2.336969761793398,,0,0,0,0,0,0,1,0,0,0,0,0,0,NoFix,649521920,0,0,558200,573441,860.1305795962138,91406.8549685035,38.58850531792268,-18544,58560,-959408,-6142500,-3211250,0,0,780000,0,-3780,3349,-3348
1781646017271,2.040512159153991,,0,0,0,0,0,0,1,0,0,0,0,0,0,NoFix,649521920,0,0,558700,573941,859.969971939685,91408.6306782609,38.59732242068276,-25376,62464,-942816,-332500,-2310000,2213750,0,0,780000,-3788,3345,-3350
1781646017757,0.7496992086623777,,0,0,0,0,0,0,1,0,0,0,0,0,0,NoFix,649521920,0,0,559200,574441,860.346734274033,91404.46516405413,38.59732242068276,-27328,75152,-951600,-2117500,393750,1330000,0,780000,0,-3764,3289,-3409
1781646018273,2.5531411636419534,,0,0,0,0,0,0,1,0,0,0,0,0,0,NoFix,649521920,0,0,559800,574941,859.8896692923279,91409.51853055271,38.60173096507788,-13664,65392,-953552,1890000,-1846250,883750,0,0,0,-3787,3333,-3448
1781646018759,2.0157627860597813,,0,0,0,0,0,0,1,0,0,0,0,0,0,NoFix,649521920,0,0,560300,575441,859.352316114628,91415.45986237559,38.610548039898276,-8784,72224,-953552,-813750,-507500,437500,0,780000,0,-3791,3297,-3383
1781646019244,1.5586986367599138,,0,0,0,0,0,0,1,0,0,0,0,0,0,NoFix,649521920,0,0,560800,575941,860.1058302231196,91407.12860060793,38.610548039898276,-10736,63440,-962336,105000,393750,1330000,0,0,0,-3770,3317,-3347
1781646019754,0.7249102277065731,,0,0,0,0,0,0,1,0,0,0,0,0,0,NoFix,649521920,0,0,561300,576441,860.025530447329,91408.01640934286,38.61495657032356,-21472,60512,-970144,-1225000,-1408750,-1785000,0,0,780000,-3796,3291,-3377
1781646020271,2.392540269887945,,0,0,0,0,0,0,1,0,0,0,0,0,0,NoFix,649521920,0,0,561900,576941,859.5684665755136,91413.06992247104,38.619365096092224,-17568,46848,-968192,560000,-953750,-892500,0,780000,0,-3829,3323,-3380
1781646020757,1.478399138453824,,0,0,0,0,0,0,1,0,0,0,0,0,0,NoFix,649521920,0,0,562100,577441,858.8952781825882,91420.51342173046,38.61495657032356,-15616,61488,-938912,105000,-507500,1347500,0,780000,0,-3804,3296,-3421
1781646021243,1.3981004274079396,,0,0,0,0,0,0,1,0,0,0,0,0,0,NoFix,649521920,0,0,562700,577941,860.2417122706773,91405.62628019637,38.62377361720428,-17568,78080,-945744,-1225000,-953750,2213750,0,780000,780000,-3787,3302,-3368
1781646021728,2.071347929349372,,0,0,0,0,0,0,1,0,0,0,0,0,0,NoFix,649521920,0,0,563200,578441,860.2417122706773,91405.62628019637,38.62377361720428,-37088,73200,-953552,-3473750,-3657500,3106250,0,780000,780000,-3807,3283,-3364
1781646022269,1.694568406415101,,0,0,0,0,0,0,1,0,0,0,0,0,0,NoFix,649521920,0,0,563700,578941,859.4881678644678,91413.95776613755,38.62377361720428,-27328,53680,-967216,-1671250,3097500,1776250,0,0,0,-3773,3318,-3376
1781646022754,2.071347929349372,,0,0,0,0,0,0,1,0,0,0,0,0,0,NoFix,649521920,0,0,564300,579441,859.4078699406798,91414.84560807857,38.62818213365972,-22448,52704,-964288,1443750,-3202500,-3132500,0,780000,0,-3773,3311,-3349
1781646023242,2.071347929349372,,0,0,0,0,0,0,1,0,0,0,0,0,0,NoFix,649521984,0,0,564800,579941,860.1614153664092,91406.51404537378,38.62818213365972,-8784,47824,-954528,-332500,3097500,-446250,0,0,0,-3795,3307,-3349
1781646023727,2.071347929349372,,0,0,0,0,0,0,1,0,0,0,0,0,0,NoFix,649521984,0,0,565300,580441,859.4078699406798,91414.84560807857,38.62818213365972,-23424,63440,-959408,-4795000,848750,1330000,0,780000,0,-3810,3298,-3332
1781646024243,1.1572090178281087,,0,0,0,0,0,0,1,0,0,0,0,0,0,NoFix,649521984,0,0,565900,580941,859.7846358434749,91410.67982519645,38.62818213365972,-12688,62464,-952576,2336250,-953750,1330000,0,780000,0,-3773,3311,-3295
1781646024753,1.5339759401144875,,0,0,0,0,0,0,1,0,0,0,0,0,0,NoFix,649521984,0,0,566100,581441,860.0008239196144,91408.28957055206,38.636999152600765,-28304,55632,-977952,96250,840000,883750,0,0,780000,-3810,3305,-3382
1781646025239,1.1572090178281087,,0,0,0,0,0,0,1,0,0,0,0,0,0,NoFix,649521984,0,0,566700,581941,860.5938396106761,91401.73323130849,38.64581615291536,-14640,68320,-954528,-3902500,-2756250,2213750,0,780000,0,-3775,3334,-3349
1781646025725,1.910756482554575,,0,0,0,0,0,0,1,0,0,0,0,0,0,NoFix,649522048,0,0,567100,582441,859.7599426537416,91410.952845376,38.650224646087736,-19520,58560,-965264,1898750,-4068750,2660000,0,0,0,-3803,3349,-3387
1781646026240,1.9663792385623537,,0,0,0,0,0,0,1,0,0,0,0,0,0,NoFix,649522048,0,0,567700,582941,860.5938396106761,91401.73323130849,38.64581615291536,-36112,64416,-950624,1461250,-52500,481250,0,0,0,-3808,3281,-3377
1781646026726,1.7501681847357986,,0,0,0,0,0,0,1,0,0,0,0,0,0,NoFix,649522048,0,0,568200,583441,860.5135476621103,91402.62091109491,38.650224646087736,-18544,63440,-950624,105000,-1408750,1776250,780000,780000,0,-3807,3343,-3402
1781646027237,1.5895830358759895,,0,0,0,0,0,0,1,0,0,0,0,0,0,NoFix,649522048,0,0,568800,583941,860.1367383467017,91406.78687670575,38.650224646087736,-19520,63440,-973072,-341250,1723750,-446250,0,0,0,-3823,3329,-3354
1781646027723,1.8860883547140475,,0,0,0,0,0,0,1,0,0,0,0,0,0,NoFix,649522048,0,0,569300,584441,859.7599426537416,91410.952845376,38.650224646087736,-5856,64416,-961360,551250,3552500,883750,0,780000,780000,-3806,3324,-3452
1781646028208,1.509291642303765,,0,0,0,0,0,0,1,0,0,0,0,0,0,NoFix,649522048,0,0,569900,584941,859.519068473034,91413.61610466399,38.66345009766519,-31232,50752,-951600,560000,-1400000,883750,0,780000,780000,-3775,3317,-3406
1781646028725,2.1826091026997574,,0,0,0,0,0,0,1,0,0,0,0,0,0,NoFix,649522048,0,0,570400,585441,859.3584896220863,91415.39160222288,38.67226704210043,-45872,76128,-959408,-1671250,393750,1330000,0,780000,0,-3802,3340,-3420
1781646029221,1.8860883547140475,,0,0,0,0,0,0,1,0,0,0,0,0,0,NoFix,649522048,0,0,570600,585941,859.519068473034,91413.61610466399,38.66345009766519,-37088,56608,-945744,-1671250,-1408750,1330000,0,0,0,-3793,3292,-3404
1781646029721,1.8057982580999123,,0,0,0,0,0,0,1,0,0,0,0,0,0,NoFix,649522048,0,0,571200,586441,859.735287863617,91411.22544164878,38.67226704210043,-19520,62464,-968192,-3027500,402500,0,0,0,0,-3812,3352,-3363
1781646030206,1.7255089487158557,,0,0,0,0,0,0,1,0,0,0,0,0,0,NoFix,649522112,0,0,571700,586941,860.1923877400903,91406.17161297926,38.66785857221112,-27328,83936,-980880,5906250,1295000,-446250,0,0,0,-3816,3365,-3413
1781646030723,1.6452204265572163,,0,0,0,0,0,0,1,0,0,0,0,0,0,NoFix,649522112,0,0,572200,587441,859.9515260644058,91408.83462126396,38.68108396790922,-22448,62464,-935984,-4340000,-1837500,2213750,0,0,780000,-3787,3341,-3378
1781646031209,1.4043595834561984,,0,0,0,0,0,0,1,0,0,0,0,0,0,NoFix,649522112,0,0,572700,587941,859.7909555500542,91410.60995148537,38.68990087509155,-23424,63440,-948672,560000,2651250,-1802500,0,0,780000,-3789,3352,-3386
1781646031694,2.0777156394437952,,0,0,0,0,0,0,1,0,0,0,0,0,0,NoFix,649522112,0,0,573300,588441,859.7909555500542,91410.60995148537,38.68990087509155,-40992,67344,-953552,-770000,-1855000,1330000,0,0,780000,-3826,3331,-3377
1781646032205,1.7008881129943347,,0,0,0,0,0,0,1,0,0,0,0,0,0,NoFix,649522112,0,0,573900,588942,859.7909555500542,91410.60995148537,38.68990087509155,-8784,75152,-967216,-2563750,-1855000,3106250,0,780000,0,-3778,3318,-3431
1781646032721,2.293991463925977,,0,0,0,0,0,0,1,0,0,0,0,0,0,NoFix,649522112,0,0,574300,589442,858.7162057076865,91422.49352336663,38.70753463357687,-35136,55632,-943792,-315000,-52500,1330000,0,0,0,-3783,3334,-3397
1781646033207,1.5403207475086447,,0,0,0,0,0,0,1,0,0,0,0,0,0,NoFix,649522112,0,0,574600,589942,859.550105682651,91413.27293386197,38.70312620094046,-25376,50752,-954528,-1216250,-4103750,0,0,780000,780000,-3793,3329,-3349
1781646033692,0.7064210046150947,,0,0,0,0,0,0,1,0,0,0,0,0,0,NoFix,649522112,0,0,575200,590442,860.6003535389522,91401.66121589481,38.70753463357687,-20496,39040,-970144,568750,-498750,2213750,0,0,780000,-3800,3322,-3386
1781646034178,1.2994756033992871,,0,0,0,0,0,0,1,0,0,0,0,0,0,NoFix,649522112,0,0,575700,590942,860.2234967230222,91405.82767126996,38.70753463357687,-11712,66368,-950624,-6588750,-953750,437500,0,0,0,-3820,3299,-3346
1781646034728,1.972870256799979,,0,0,0,0,0,0,1,0,0,0,0,0,0,NoFix,649522176,0,0,576300,591442,858.9324459394983,91420.10244200079,38.71635148487985,-37088,79056,-954528,3692500,-945000,883750,780000,0,0,-3799,3311,-3346
1781646035205,2.349728092061355,,0,0,0,0,0,0,1,0,0,0,0,0,0,NoFix,649522176,0,0,576800,591942,859.6058146411683,91412.65697620864,38.72075990354642,-15616,71248,-963312,-2555000,402500,-446250,0,0,0,-3778,3308,-3479
1781646035689,1.596026047534906,,0,0,0,0,0,0,1,0,0,0,0,0,0,NoFix,649522176,0,0,577300,592442,860.3595177049868,91404.32383212396,38.72075990354642,-9760,70272,-957456,-3491250,-3657500,0,0,780000,0,-3775,3314,-3424
1781646036176,1.2191954631258568,,0,0,0,0,0,0,1,0,0,0,0,0,0,NoFix,649522176,0,0,577800,592942,859.982659360074,91408.49040263653,38.72075990354642,-15616,59536,-949648,-341250,-2301250,3106250,0,780000,780000,-3766,3312,-3420
1781646036692,1.058637544212047,,0,0,0,0,0,0,1,0,0,0,0,0,0,NoFix,649522176,0,0,578300,593442,860.2792406680439,91405.21136741106,38.72516831755638,-29280,53680,-952576,-323750,1303750,0,0,0,0,-3779,3283,-3431
1781646037178,1.058637544212047,,0,0,0,0,0,0,1,0,0,0,0,0,0,NoFix,649522176,0,0,578500,593942,860.5758374096366,91401.9322567592,38.72957672690973,-30256,41968,-962336,-1216250,3517500,2660000,0,0,0,-3765,3293,-3421
1781646037688,2.7265995544447605,,0,0,0,0,0,0,1,0,0,0,0,0,0,NoFix,649522176,0,0,579100,594442,860.2792406680439,91405.21136741106,38.72516831755638,-29280,69296,-970144,-1671250,2196250,-1373750,0,780000,0,-3754,3305,-3378
1781646038175,1.2749153970456746,,0,0,0,0,0,0,1,0,0,0,0,0,0,NoFix,649522176,0,0,579700,594942,860.1186889557197,91406.98643280043,38.73398513160646,-19520,64416,-947696,-1671250,402500,3106250,0,780000,0,-3779,3326,-3420
1781646038660,1.058637544212047,,0,0,0,0,0,0,1,0,0,0,0,0,0,NoFix,649522176,0,0,580200,595442,859.0684272026368,91418.59885195976,38.72957672690973,3904,60512,-957456,-2100000,-1846250,4436250,0,0,0,-3751,3308,-3401